SpectraSuite Data File
++++++++++++++++++++++++++++++++++++
Date: Fri Aug 25 15:09:26 EST 2017
User: z3470068
Dark Spectrum Present: Yes
Reference Spectrum Present: No
Number of Sampled Component Spectra: 1
Spectrometers: USB2+F03475
Integration Time (usec): 1000 (USB2+F03475)
Spectra Averaged: 50 (USB2+F03475)
Boxcar Smoothing: 0 (USB2+F03475)
Correct for Electrical Dark: No (USB2+F03475)
Strobe/Lamp Enabled: No (USB2+F03475)
Correct for Detector Non-linearity: No (USB2+F03475)
Correct for Stray Light: No (USB2+F03475)
Number of Pixels in Processed Spectrum: 2048
>>>>>Begin Processed Spectral Data<<<<<
441.04	6.55
441.42	6.55
441.79	6.55
442.17	1.67
442.55	-2.21
442.93	11.89
443.31	3.93
443.68	17.72
444.06	-3.21
444.44	5.29
444.82	4.75
445.19	9.08
445.57	7.68
445.95	6.46
446.33	-1.58
446.70	20.88
447.08	-0.63
447.46	7.59
447.84	10.67
448.21	6.96
448.59	6.15
448.97	12.75
449.35	20.38
449.72	8.72
450.10	11.66
450.48	4.20
450.85	15.59
451.23	16.36
451.61	9.58
451.98	12.61
452.36	-1.49
452.74	2.62
453.11	3.89
453.49	8.63
453.87	12.43
454.24	11.07
454.62	20.75
455.00	6.06
455.37	19.75
455.75	10.67
456.13	-8.14
456.50	22.37
456.88	-0.05
457.26	11.48
457.63	18.21
458.01	4.34
458.38	3.43
458.76	6.82
459.14	1.27
459.51	18.30
459.89	15.05
460.26	10.76
460.64	0.72
461.02	14.55
461.39	22.78
461.77	1.18
462.14	7.37
462.52	0.77
462.89	11.62
463.27	15.64
463.65	18.08
464.02	13.88
464.40	13.65
464.77	9.45
465.15	11.21
465.52	15.19
465.90	9.99
466.27	17.58
466.65	17.49
467.02	4.34
467.40	14.55
467.77	11.39
468.15	2.21
468.52	-0.59
468.90	7.77
469.27	15.37
469.65	-6.24
470.02	13.97
470.40	0.45
470.77	5.38
471.15	14.15
471.52	1.04
471.90	4.88
472.27	5.15
472.65	8.81
473.02	13.83
473.39	6.51
473.77	1.27
474.14	14.82
474.52	-7.82
474.89	16.86
475.27	8.14
475.64	13.02
476.01	1.04
476.39	2.94
476.76	2.49
477.14	8.50
477.51	1.18
477.88	12.02
478.26	5.47
478.63	11.30
479.01	-2.35
479.38	9.13
479.75	2.94
480.13	2.03
480.50	7.55
480.87	8.32
481.25	2.44
481.62	2.89
481.99	11.16
482.37	4.11
482.74	3.62
483.11	8.90
483.49	10.26
483.86	-4.66
484.23	1.63
484.61	7.86
484.98	15.32
485.35	4.97
485.73	-7.14
486.10	7.95
486.47	12.88
486.84	5.02
487.22	9.67
487.59	1.36
487.96	6.15
488.34	12.47
488.71	14.37
489.08	8.14
489.45	5.38
489.83	9.27
490.20	8.81
490.57	5.79
490.94	19.71
491.32	4.07
491.69	15.86
492.06	11.07
492.43	8.04
492.81	8.86
493.18	15.68
493.55	1.40
493.92	1.27
494.29	10.26
494.67	13.97
495.04	5.06
495.41	-2.44
495.78	12.93
496.15	3.84
496.52	-3.12
496.90	1.58
497.27	6.06
497.64	4.88
498.01	-3.25
498.38	3.66
498.75	5.60
499.13	-0.50
499.50	16.99
499.87	15.14
500.24	-3.03
500.61	5.79
500.98	5.06
501.35	9.40
501.73	13.02
502.10	18.80
502.47	8.81
502.84	9.40
503.21	7.37
503.58	8.09
503.95	10.26
504.32	5.60
504.69	12.38
505.06	1.31
505.43	9.94
505.81	14.55
506.18	9.81
506.55	-2.21
506.92	17.40
507.29	15.10
507.66	-2.03
508.03	13.15
508.40	-1.49
508.77	3.84
509.14	8.63
509.51	1.72
509.88	10.62
510.25	9.22
510.62	18.76
510.99	5.02
511.36	11.98
511.73	11.53
512.10	15.41
512.47	0.36
512.84	16.45
513.21	2.44
513.58	14.10
513.95	20.97
514.32	4.07
514.69	5.56
515.06	-2.12
515.43	-1.36
515.80	0.95
516.17	13.97
516.54	11.16
516.91	13.33
517.28	21.33
517.64	15.37
518.01	8.09
518.38	-9.90
518.75	17.04
519.12	24.32
519.49	3.53
519.86	1.72
520.23	11.21
520.60	3.66
520.97	11.21
521.34	12.34
521.70	3.30
522.07	16.00
522.44	8.00
522.81	7.68
523.18	1.94
523.55	-5.65
523.92	6.46
524.29	19.30
524.65	2.26
525.02	2.85
525.39	10.58
525.76	5.69
526.13	-1.49
526.50	16.99
526.86	3.03
527.23	9.13
527.60	3.66
527.97	16.50
528.34	2.40
528.70	22.10
529.07	3.98
529.44	10.53
529.81	13.56
530.18	28.38
530.54	10.30
530.91	4.25
531.28	6.82
531.65	10.08
532.02	10.58
532.38	-1.45
532.75	-0.59
533.12	16.09
533.49	15.05
533.85	6.46
534.22	14.46
534.59	1.13
534.96	23.37
535.32	9.45
535.69	-2.40
536.06	-0.18
536.42	12.34
536.79	14.19
537.16	-0.54
537.53	15.28
537.89	6.01
538.26	7.82
538.63	18.08
538.99	17.40
539.36	13.78
539.73	-6.46
540.09	-0.23
540.46	14.33
540.83	8.68
541.19	9.45
541.56	10.40
541.93	17.67
542.29	7.59
542.66	-1.94
543.03	16.81
543.39	17.85
543.76	15.32
544.12	8.86
544.49	13.47
544.86	9.17
545.22	13.83
545.59	2.94
545.95	1.45
546.32	9.17
546.69	13.92
547.05	1.40
547.42	11.12
547.78	12.07
548.15	5.51
548.52	4.43
548.88	4.02
549.25	10.67
549.61	2.53
549.98	4.07
550.34	-4.97
550.71	14.42
551.07	-2.80
551.44	2.89
551.81	11.89
552.17	9.49
552.54	10.71
552.90	6.19
553.27	11.66
553.63	-0.23
554.00	-8.27
554.36	3.25
554.73	12.20
555.09	-2.21
555.46	13.83
555.82	19.57
556.19	4.25
556.55	-1.45
556.92	7.50
557.28	12.79
557.64	15.91
558.01	3.84
558.37	-0.72
558.74	4.47
559.10	18.49
559.47	7.50
559.83	5.47
560.20	0.99
560.56	11.21
560.92	8.86
561.29	7.50
561.65	20.07
562.02	6.92
562.38	16.41
562.75	10.94
563.11	13.33
563.47	4.61
563.84	5.24
564.20	0.23
564.57	19.48
564.93	10.35
565.29	0.59
565.66	10.62
566.02	5.42
566.38	16.68
566.75	2.44
567.11	14.55
567.47	12.47
567.84	-4.97
568.20	17.67
568.56	17.08
568.93	11.93
569.29	11.21
569.65	12.02
570.02	-0.36
570.38	-8.32
570.74	12.61
571.11	6.28
571.47	10.80
571.83	15.82
572.20	3.03
572.56	17.22
572.92	8.99
573.28	10.03
573.65	7.82
574.01	5.15
574.37	19.07
574.74	2.53
575.10	7.82
575.46	11.80
575.82	11.93
576.19	22.82
576.55	4.56
576.91	6.55
577.27	6.28
577.63	19.16
578.00	7.50
578.36	7.64
578.72	6.15
579.08	-0.00
579.45	6.96
579.81	16.45
580.17	23.37
580.53	4.84
580.89	10.40
581.26	-2.53
581.62	14.73
581.98	8.36
582.34	17.49
582.70	15.01
583.06	3.21
583.43	11.12
583.79	-2.62
584.15	-3.66
584.51	3.93
584.87	14.15
585.23	20.16
585.59	8.27
585.96	13.38
586.32	11.66
586.68	22.10
587.04	10.49
587.40	13.33
587.76	1.72
588.12	4.70
588.48	9.36
588.84	16.54
589.21	12.07
589.57	1.85
589.93	-0.54
590.29	22.10
590.65	8.68
591.01	5.38
591.37	4.16
591.73	21.47
592.09	6.96
592.45	18.12
592.81	15.19
593.17	15.41
593.53	15.32
593.89	11.16
594.25	6.37
594.61	2.62
594.97	3.39
595.33	9.04
595.69	6.69
596.05	1.36
596.41	10.08
596.77	8.59
597.13	11.93
597.49	18.76
597.85	14.15
598.21	-8.04
598.57	27.62
598.93	-8.14
599.29	-3.53
599.65	5.47
600.01	10.12
600.37	16.68
600.73	12.56
601.09	-0.50
601.45	-5.29
601.81	-2.98
602.17	10.98
602.53	8.09
602.89	4.75
603.25	10.62
603.61	12.43
603.97	5.74
604.32	9.81
604.68	-7.01
605.04	9.67
605.40	6.33
605.76	0.36
606.12	12.07
606.48	8.14
606.84	22.46
607.20	5.11
607.55	2.17
607.91	2.12
608.27	6.28
608.63	-2.03
608.99	9.36
609.35	17.40
609.71	9.90
610.06	14.19
610.42	0.77
610.78	8.36
611.14	25.72
611.50	8.32
611.86	13.29
612.21	4.25
612.57	17.40
612.93	18.21
613.29	5.83
613.65	0.77
614.00	-6.33
614.36	1.81
614.72	14.55
615.08	6.60
615.44	3.53
615.79	8.54
616.15	9.85
616.51	13.83
616.87	-6.33
617.22	12.79
617.58	12.88
617.94	24.27
618.30	9.31
618.65	16.00
619.01	13.29
619.37	10.89
619.73	10.44
620.08	9.13
620.44	-3.12
620.80	2.44
621.15	8.23
621.51	2.44
621.87	13.20
622.22	8.59
622.58	10.08
622.94	2.58
623.30	5.38
623.65	6.69
624.01	11.07
624.37	3.66
624.72	11.75
625.08	18.39
625.44	9.63
625.79	7.01
626.15	6.37
626.50	11.43
626.86	6.55
627.22	4.56
627.57	18.80
627.93	1.58
628.29	6.37
628.64	23.37
629.00	7.19
629.35	3.21
629.71	-2.12
630.07	8.50
630.42	7.64
630.78	-7.14
631.13	3.57
631.49	8.86
631.85	10.67
632.20	0.63
632.56	1.94
632.91	2.67
633.27	5.06
633.62	13.65
633.98	10.26
634.34	7.10
634.69	-5.38
635.05	7.77
635.40	9.17
635.76	5.97
636.11	6.10
636.47	12.29
636.82	12.97
637.18	-3.93
637.53	9.45
637.89	-0.72
638.24	-4.38
638.60	3.89
638.95	5.02
639.31	2.17
639.66	7.77
640.02	23.46
640.37	-8.00
640.73	10.98
641.08	10.17
641.44	7.59
641.79	21.33
642.14	5.56
642.50	13.69
642.85	2.21
643.21	7.82
643.56	17.90
643.92	1.94
644.27	8.68
644.63	15.50
644.98	6.10
645.33	5.47
645.69	17.49
646.04	-1.22
646.40	16.45
646.75	10.98
647.10	14.73
647.46	8.41
647.81	7.77
648.17	4.70
648.52	9.45
648.87	19.62
649.23	17.27
649.58	11.16
649.93	12.52
650.29	12.88
650.64	10.58
650.99	4.29
651.35	10.98
651.70	14.55
652.05	-10.67
652.41	9.76
652.76	14.33
653.11	14.69
653.47	9.85
653.82	3.93
654.17	12.47
654.53	9.54
654.88	-4.88
655.23	0.23
655.58	-1.31
655.94	12.70
656.29	16.09
656.64	10.67
657.00	3.43
657.35	1.45
657.70	5.38
658.05	15.86
658.41	10.80
658.76	11.84
659.11	9.27
659.46	8.09
659.82	-3.43
660.17	12.11
660.52	9.90
660.87	4.88
661.23	6.28
661.58	0.18
661.93	24.23
662.28	9.27
662.63	18.98
662.99	6.24
663.34	1.85
663.69	10.98
664.04	12.38
664.39	11.39
664.74	22.37
665.10	29.78
665.45	-8.99
665.80	6.15
666.15	17.08
666.50	4.79
666.85	17.72
667.21	11.71
667.56	18.12
667.91	6.55
668.26	-1.22
668.61	5.51
668.96	-1.94
669.31	5.56
669.66	-9.94
670.02	8.68
670.37	5.33
670.72	7.37
671.07	-2.94
671.42	13.51
671.77	9.45
672.12	-1.54
672.47	12.61
672.82	7.64
673.17	11.34
673.52	4.66
673.88	13.29
674.23	4.34
674.58	-2.85
674.93	13.51
675.28	-1.31
675.63	17.72
675.98	10.35
676.33	13.92
676.68	9.13
677.03	16.36
677.38	14.46
677.73	17.90
678.08	14.73
678.43	4.56
678.78	15.55
679.13	10.35
679.48	14.24
679.83	12.43
680.18	3.30
680.53	7.68
680.88	-2.40
681.23	5.60
681.58	1.45
681.93	8.86
682.28	5.56
682.63	-2.12
682.98	12.47
683.33	10.62
683.68	2.71
684.02	3.62
684.37	9.31
684.72	19.21
685.07	-9.72
685.42	13.29
685.77	-8.18
686.12	8.68
686.47	11.03
686.82	0.90
687.17	1.31
687.52	6.78
687.86	11.62
688.21	10.40
688.56	19.07
688.91	-9.04
689.26	5.74
689.61	12.88
689.96	11.34
690.31	13.38
690.65	12.29
691.00	6.24
691.35	0.72
691.70	13.92
692.05	11.12
692.40	-0.54
692.74	13.42
693.09	4.79
693.44	15.55
693.79	12.88
694.14	2.71
694.49	0.77
694.83	12.93
695.18	16.63
695.53	10.17
695.88	17.27
696.23	11.53
696.57	13.11
696.92	15.77
697.27	12.70
697.62	13.97
697.96	7.68
698.31	10.49
698.66	17.94
699.01	10.89
699.35	8.68
699.70	10.03
700.05	4.11
700.40	16.90
700.74	8.41
701.09	10.62
701.44	16.18
701.79	9.49
702.13	-2.31
702.48	15.28
702.83	-0.32
703.17	6.96
703.52	-5.29
703.87	5.56
704.21	3.43
704.56	12.25
704.91	5.60
705.25	-4.29
705.60	4.29
705.95	6.78
706.29	10.44
706.64	11.03
706.99	20.88
707.33	7.14
707.68	6.19
708.03	2.21
708.37	8.27
708.72	7.23
709.07	16.36
709.41	10.17
709.76	12.79
710.10	-6.37
710.45	9.81
710.80	17.81
711.14	7.10
711.49	-6.28
711.83	0.41
712.18	12.79
712.53	3.66
712.87	-2.53
713.22	0.77
713.56	12.20
713.91	7.19
714.25	5.83
714.60	8.59
714.95	3.12
715.29	13.33
715.64	1.27
715.98	11.07
716.33	18.85
716.67	6.33
717.02	4.16
717.36	-6.60
717.71	-7.82
718.05	5.88
718.40	20.56
718.74	6.73
719.09	0.95
719.43	5.74
719.78	10.53
720.12	-11.34
720.47	13.78
720.81	22.15
721.16	2.58
721.50	12.66
721.85	6.78
722.19	-5.65
722.54	9.45
722.88	12.29
723.22	4.70
723.57	13.38
723.91	19.89
724.26	2.12
724.60	7.01
724.95	9.94
725.29	2.31
725.63	14.60
725.98	8.09
726.32	12.07
726.67	9.63
727.01	17.99
727.35	6.37
727.70	2.53
728.04	13.56
728.39	5.47
728.73	10.17
729.07	4.61
729.42	-2.35
729.76	9.99
730.10	9.72
730.45	2.94
730.79	8.81
731.13	4.34
731.48	18.53
731.82	1.36
732.17	7.64
732.51	9.40
732.85	24.72
733.19	4.97
733.54	5.47
733.88	-0.00
734.22	7.32
734.57	3.03
734.91	18.49
735.25	19.89
735.60	8.14
735.94	7.37
736.28	0.50
736.62	1.31
736.97	13.60
737.31	7.59
737.65	15.19
738.00	1.58
738.34	7.68
738.68	7.55
739.02	9.40
739.37	11.16
739.71	2.76
740.05	14.37
740.39	5.15
740.73	14.28
741.08	9.31
741.42	5.88
741.76	3.30
742.10	7.32
742.44	10.30
742.79	6.28
743.13	14.46
743.47	21.83
743.81	15.23
744.15	4.56
744.50	-1.27
744.84	11.71
745.18	11.80
745.52	10.30
745.86	-7.01
746.20	9.40
746.55	12.20
746.89	14.06
747.23	11.89
747.57	18.80
747.91	3.03
748.25	4.61
748.59	21.97
748.94	13.69
749.28	18.67
749.62	0.14
749.96	-2.53
750.30	8.04
750.64	2.67
750.98	6.19
751.32	-4.61
751.66	-0.99
752.00	7.68
752.34	12.84
752.69	7.73
753.03	8.04
753.37	2.94
753.71	12.70
754.05	3.71
754.39	-10.49
754.73	-2.62
755.07	8.63
755.41	0.99
755.75	-1.58
756.09	17.58
756.43	3.80
756.77	6.69
757.11	7.73
757.45	17.54
757.79	11.39
758.13	20.61
758.47	11.71
758.81	14.64
759.15	6.28
759.49	2.94
759.83	3.48
760.17	9.31
760.51	10.58
760.85	14.01
761.19	16.50
761.53	14.64
761.87	9.40
762.21	18.67
762.55	-1.08
762.89	5.56
763.23	6.46
763.57	2.35
763.91	6.69
764.24	10.08
764.58	11.71
764.92	15.86
765.26	10.98
765.60	10.67
765.94	-0.41
766.28	8.23
766.62	3.34
766.96	14.78
767.30	4.29
767.63	17.99
767.97	23.59
768.31	5.83
768.65	7.77
768.99	16.23
769.33	4.38
769.67	8.45
770.00	11.25
770.34	13.24
770.68	0.86
771.02	16.14
771.36	8.68
771.70	-0.45
772.03	5.65
772.37	19.12
772.71	12.34
773.05	13.47
773.39	11.25
773.73	-0.14
774.06	9.36
774.40	19.89
774.74	6.87
775.08	-5.92
775.41	7.59
775.75	4.25
776.09	12.93
776.43	-0.68
776.77	5.42
777.10	8.59
777.44	14.82
777.78	12.75
778.12	18.80
778.45	5.06
778.79	10.49
779.13	-7.91
779.46	-0.63
779.80	16.95
780.14	7.05
780.48	8.63
780.81	2.58
781.15	2.31
781.49	7.95
781.82	6.82
782.16	0.99
782.50	16.27
782.84	-4.84
783.17	12.20
783.51	14.60
783.85	-3.62
784.18	11.12
784.52	17.72
784.86	6.37
785.19	-8.59
785.53	4.43
785.86	-2.35
786.20	23.46
786.54	12.56
786.87	9.90
787.21	15.37
787.55	-1.18
787.88	2.17
788.22	10.49
788.55	18.49
788.89	3.71
789.23	10.62
789.56	12.79
789.90	13.92
790.23	3.21
790.57	10.40
790.91	2.44
791.24	6.69
791.58	13.83
791.91	-3.62
792.25	1.85
792.58	1.99
792.92	7.91
793.26	12.43
793.59	-1.54
793.93	17.04
794.26	11.89
794.60	3.98
794.93	18.49
795.27	10.08
795.60	15.50
795.94	3.03
796.27	20.25
796.61	10.94
796.94	16.14
797.28	12.25
797.61	14.19
797.95	7.95
798.28	6.37
798.62	-3.57
798.95	19.89
799.29	7.73
799.62	3.98
799.96	10.89
800.29	5.60
800.63	14.19
800.96	-0.41
801.29	18.35
801.63	2.98
801.96	3.57
802.30	6.82
802.63	2.62
802.97	2.12
803.30	6.46
803.63	12.25
803.97	13.60
804.30	8.72
804.64	12.52
804.97	6.60
805.30	9.22
805.64	19.98
805.97	15.23
806.31	11.43
806.64	0.23
806.97	16.54
807.31	1.94
807.64	10.89
807.97	13.20
808.31	7.68
808.64	-8.41
808.97	12.47
809.31	17.49
809.64	10.12
809.97	9.54
810.31	11.21
810.64	9.76
810.97	5.38
811.31	4.56
811.64	-2.98
811.97	11.48
812.31	17.63
812.64	8.45
812.97	12.88
813.30	8.14
813.64	5.56
813.97	10.44
814.30	3.03
814.64	5.06
814.97	12.93
815.30	13.47
815.63	15.23
815.97	3.43
816.30	4.70
816.63	1.90
816.96	2.80
817.30	17.49
817.63	1.54
817.96	14.55
818.29	12.38
818.62	2.44
818.96	5.92
819.29	-1.13
819.62	7.37
819.95	14.42
820.28	-3.62
820.62	-11.30
820.95	-0.18
821.28	5.02
821.61	3.84
821.94	17.54
822.28	3.43
822.61	11.53
822.94	15.77
823.27	24.27
823.60	9.22
823.93	13.65
824.26	14.51
824.60	12.79
824.93	7.77
825.26	7.19
825.59	14.55
825.92	2.40
826.25	2.03
826.58	8.36
826.91	9.76
827.25	7.19
827.58	6.24
827.91	12.20
828.24	16.86
828.57	14.87
828.90	12.88
829.23	3.62
829.56	10.53
829.89	14.15
830.22	26.53
830.55	10.71
830.88	7.23
831.21	10.21
831.54	8.90
831.87	6.10
832.21	10.89
832.54	15.86
832.87	-0.72
833.20	0.50
833.53	14.24
833.86	10.35
834.19	20.84
834.52	18.98
834.85	1.54
835.18	13.56
835.51	17.36
835.84	2.89
836.17	-4.16
836.50	12.88
836.83	10.71
837.16	14.82
837.49	10.08
837.81	4.61
838.14	22.01
838.47	-1.49
838.80	15.73
839.13	3.80
839.46	10.62
839.79	3.62
840.12	7.23
840.45	23.68
840.78	6.01
841.11	11.53
841.44	10.30
841.77	11.98
842.10	11.07
842.42	15.14
842.75	8.32
843.08	-6.10
843.41	8.00
843.74	6.19
844.07	4.88
844.40	5.69
844.73	2.98
845.06	4.25
845.38	11.84
845.71	16.18
846.04	18.03
846.37	1.94
846.70	-3.03
847.03	6.24
847.35	13.42
847.68	14.82
848.01	7.64
848.34	11.16
848.67	3.93
849.00	3.48
849.32	17.63
849.65	12.25
849.98	8.63
850.31	7.73
850.64	5.06
850.96	6.78
851.29	5.88
851.62	9.67
851.95	10.08
852.27	28.75
852.60	9.22
852.93	16.68
853.26	14.73
853.58	14.37
853.91	4.34
854.24	2.71
854.57	5.92
854.89	10.58
855.22	0.45
855.55	5.97
855.88	11.57
856.20	13.42
856.53	10.08
856.86	-0.05
857.18	23.19
857.51	2.71
857.84	5.88
858.17	3.34
858.49	17.31
858.82	-5.74
859.15	-2.58
859.47	1.58
859.80	14.64
860.13	16.36
860.45	6.24
860.78	-3.71
861.11	9.31
861.43	18.44
861.76	5.88
862.08	23.73
862.41	9.36
862.74	8.41
863.06	11.03
863.39	2.26
863.72	9.31
864.04	7.68
864.37	-5.42
864.69	12.88
865.02	-0.05
865.35	15.68
865.67	6.19
866.00	6.37
866.32	15.77
866.65	13.88
866.97	16.41
867.30	13.92
867.63	0.72
867.95	17.13
868.28	6.28
868.60	8.14
868.93	13.92
869.25	20.61
869.58	8.81
869.90	9.22
870.23	20.16
870.55	10.08
870.88	5.79
871.20	13.51
871.53	8.90
871.85	13.56
872.18	10.94
872.50	5.83
872.83	16.14
873.15	4.34
873.48	24.86
873.80	6.96
874.13	21.83
874.45	4.84
874.78	11.75
875.10	21.11
875.43	17.90
875.75	2.94
876.08	7.05
876.40	2.94
876.73	17.63
877.05	4.70
877.37	3.80
877.70	14.15
878.02	-8.50
878.35	-2.76
878.67	16.95
878.99	13.83
879.32	4.16
879.64	9.72
879.97	19.25
880.29	6.55
880.61	4.38
880.94	13.92
881.26	7.10
881.59	17.49
881.91	1.94
882.23	18.85
882.56	9.40
882.88	18.39
883.20	2.21
883.53	12.56
883.85	16.81
884.17	-3.57
884.50	14.28
884.82	10.67
885.14	10.58
885.47	2.17
885.79	16.99
886.11	16.14
886.44	8.81
886.76	6.28
887.08	17.49
887.41	15.86
887.73	20.88
888.05	-1.81
888.37	17.72
888.70	0.77
889.02	12.34
889.34	10.26
889.66	6.73
889.99	10.98
890.31	15.05
890.63	13.42
890.95	3.98
891.28	3.34
891.60	11.84
891.92	12.07
892.24	12.84
892.57	11.75
892.89	18.39
893.21	9.72
893.53	17.13
893.85	9.36
894.18	4.07
894.50	14.64
894.82	16.09
895.14	5.06
895.46	15.77
895.79	14.46
896.11	11.43
896.43	21.51
896.75	7.95
897.07	1.94
897.39	18.03
897.72	13.78
898.04	19.52
898.36	-3.34
898.68	10.85
899.00	10.94
899.32	0.86
899.64	4.20
899.97	4.84
900.29	23.91
900.61	9.36
900.93	25.76
901.25	4.70
901.57	5.60
901.89	4.97
902.21	4.16
902.53	3.48
902.85	14.87
903.18	13.65
903.50	3.75
903.82	8.04
904.14	-16.27
904.46	2.94
904.78	20.93
905.10	1.99
905.42	18.62
905.74	17.54
906.06	7.82
906.38	24.54
906.70	-7.82
907.02	14.37
907.34	7.32
907.66	8.86
907.98	17.36
908.30	-0.05
908.62	24.59
908.94	12.56
909.26	10.85
909.58	12.93
909.90	-0.36
910.22	11.89
910.54	13.24
910.86	14.37
911.18	1.99
911.50	-2.71
911.82	12.47
912.14	11.12
912.46	14.19
912.78	1.36
913.10	14.06
913.42	8.54
913.74	15.73
914.06	10.62
914.37	4.79
914.69	16.23
915.01	0.68
915.33	3.93
915.65	5.51
915.97	-1.99
916.29	5.83
916.61	6.24
916.93	8.68
917.25	1.04
917.56	0.90
917.88	6.46
918.20	14.10
918.52	27.80
918.84	4.93
919.16	17.63
919.48	5.38
919.79	11.93
920.11	-6.51
920.43	18.98
920.75	11.75
921.07	-6.24
921.39	7.55
921.70	13.69
922.02	11.30
922.34	8.41
922.66	0.72
922.98	6.92
923.30	-7.95
923.61	17.72
923.93	4.25
924.25	6.33
924.57	4.70
924.88	7.50
925.20	6.06
925.52	-0.81
925.84	15.82
926.16	10.94
926.47	2.49
926.79	12.75
927.11	10.21
927.43	15.50
927.74	17.36
928.06	5.06
928.38	17.67
928.69	10.30
929.01	13.42
929.33	10.62
929.65	22.55
929.96	19.75
930.28	-1.54
930.60	7.64
930.91	16.95
931.23	11.84
931.55	12.47
931.86	18.44
932.18	9.36
932.50	4.84
932.81	15.23
933.13	13.11
933.45	0.54
933.76	-0.72
934.08	7.73
934.40	11.84
934.71	16.23
935.03	7.28
935.35	13.69
935.66	16.00
935.98	-0.50
936.29	-6.92
936.61	18.12
936.93	14.28
937.24	9.63
937.56	12.66
937.88	14.46
938.19	12.93
938.51	1.85
938.82	8.59
939.14	4.56
939.45	6.33
939.77	10.58
940.09	16.18
940.40	12.07
940.72	19.93
941.03	15.05
941.35	11.98
941.66	12.52
941.98	5.97
942.29	14.91
942.61	14.60
942.92	22.60
943.24	-3.80
943.55	10.53
943.87	12.52
944.19	-2.31
944.50	14.06
944.82	3.84
945.13	10.40
945.45	2.35
945.76	3.30
946.07	-3.66
946.39	10.89
946.70	20.16
947.02	5.88
947.33	9.90
947.65	10.80
947.96	10.71
948.28	9.72
948.59	9.31
948.91	14.91
949.22	11.30
949.53	11.34
949.85	-4.66
950.16	0.23
950.48	16.09
950.79	14.64
951.11	-1.40
951.42	20.38
951.73	10.89
952.05	20.16
952.36	7.50
952.68	9.45
952.99	0.77
953.30	11.93
953.62	3.34
953.93	-1.58
954.24	18.30
954.56	7.23
954.87	2.31
955.19	14.73
955.50	6.60
955.81	14.42
956.13	15.91
956.44	7.46
956.75	1.27
957.07	8.59
957.38	-4.16
957.69	2.03
958.00	2.71
958.32	15.95
958.63	-4.16
958.94	6.46
959.26	6.15
959.57	6.69
959.88	13.83
960.20	6.69
960.51	7.28
960.82	8.90
961.13	19.80
961.45	21.60
961.76	3.30
962.07	18.17
962.38	16.23
962.70	3.62
963.01	3.34
963.32	14.10
963.63	4.34
963.95	1.49
964.26	11.43
964.57	12.79
964.88	18.39
965.19	23.46
965.51	5.11
965.82	-3.30
966.13	0.63
966.44	5.33
966.75	12.43
967.07	16.99
967.38	4.61
967.69	12.16
968.00	16.41
968.31	16.95
968.62	-4.20
968.94	19.48
969.25	7.01
969.56	10.67
969.87	17.76
970.18	3.39
970.49	1.18
970.80	3.89
971.12	14.78
971.43	14.69
971.74	14.15
972.05	9.63
972.36	1.99
972.67	17.45
972.98	11.12
973.29	2.71
973.60	1.90
973.92	12.16
974.23	-0.09
974.54	5.42
974.85	13.11
975.16	6.64
975.47	11.16
975.78	12.38
976.09	7.28
976.40	-7.46
976.71	4.97
977.02	-1.81
977.33	14.15
977.64	16.54
977.95	17.81
978.26	7.41
978.57	17.63
978.88	3.25
979.19	-0.54
979.50	-0.36
979.81	11.66
980.12	7.46
980.43	10.89
980.74	0.77
981.05	-0.63
981.36	9.08
981.67	7.59
981.98	13.97
982.29	1.36
982.60	14.96
982.91	6.33
983.22	10.71
983.53	7.68
983.84	17.49
984.15	7.64
984.46	10.89
984.77	6.55
985.08	12.97
985.39	-5.79
985.70	20.02
986.00	16.32
986.31	3.75
986.62	8.95
986.93	7.86
987.24	6.92
987.55	3.16
987.86	7.73
988.17	2.08
988.48	18.58
988.79	8.59
989.09	13.33
989.40	16.41
989.71	5.29
990.02	5.15
990.33	10.35
990.64	6.51
990.95	10.30
991.25	8.95
991.56	14.15
991.87	21.33
992.18	4.66
992.49	16.45
992.79	4.66
993.10	5.38
993.41	14.46
993.72	3.48
994.03	23.14
994.33	12.25
994.64	9.49
994.95	10.62
995.26	7.28
995.57	5.56
995.87	4.11
996.18	5.60
996.49	13.06
996.80	12.61
997.10	1.67
997.41	15.73
997.72	14.87
998.03	1.81
998.33	8.00
998.64	-3.48
998.95	1.54
999.26	8.00
999.56	15.95
999.87	23.01
1000.18	9.67
1000.48	11.93
1000.79	6.06
1001.10	2.12
1001.41	0.32
1001.71	7.37
1002.02	18.80
1002.33	2.03
1002.63	7.50
1002.94	3.66
1003.25	-6.46
1003.55	7.23
1003.86	3.48
1004.17	15.01
1004.47	23.86
1004.78	4.07
1005.08	15.95
1005.39	18.30
1005.70	13.56
1006.00	16.90
1006.31	5.33
1006.62	20.88
1006.92	4.75
1007.23	6.06
1007.53	-0.86
1007.84	11.03
1008.15	14.64
1008.45	5.29
1008.76	6.60
1009.06	13.42
1009.37	15.68
1009.68	19.52
1009.98	10.85
1010.29	0.81
1010.59	-3.03
1010.90	9.04
1011.20	8.14
1011.51	7.68
1011.81	10.44
1012.12	-0.90
1012.42	-5.69
1012.73	16.68
1013.04	-2.80
1013.34	20.34
1013.65	15.82
1013.95	-1.94
1014.26	4.34
1014.56	8.86
1014.87	5.74
1015.17	23.05
1015.48	5.88
1015.78	9.36
1016.09	5.47
1016.39	7.55
1016.69	15.28
1017.00	15.86
1017.30	6.06
1017.61	6.01
1017.91	11.43
1018.22	-7.82
1018.52	8.77
1018.83	8.68
1019.13	10.35
1019.43	6.87
1019.74	9.36
1020.04	3.71
1020.35	14.87
1020.65	23.59
1020.96	19.57
1021.26	3.98
1021.56	13.65
1021.87	12.29
1022.17	1.76
1022.48	7.50
1022.78	2.80
1023.08	6.37
1023.39	-1.13
1023.69	11.80
1023.99	11.34
1024.30	5.06
1024.60	13.02
1024.90	-8.81
1025.21	6.60
1025.51	9.08
1025.81	5.65
1026.12	20.56
1026.42	2.49
1026.72	12.66
1027.03	-0.63
1027.33	5.51
1027.63	8.09
1027.94	3.43
1028.24	3.71
1028.54	13.33
1028.85	3.25
1029.15	-6.42
1029.45	14.37
1029.75	25.22
1030.06	9.90
1030.36	16.72
1030.66	7.32
1030.96	2.80
1031.27	-0.68
1031.57	14.91
1031.87	12.47
1032.17	10.98
1032.48	11.39
1032.78	18.67
1033.08	7.77
1033.38	10.89
1033.69	15.95
1033.99	9.72
1034.29	8.72
1034.59	-1.54
1034.89	18.76
1035.20	1.36
1035.50	11.80
1035.80	18.30
1036.10	16.09
1036.40	7.55
1036.71	24.32
1037.01	10.44
1037.31	17.99
1037.61	9.67
1037.91	5.97
1038.21	15.59
1038.52	5.60
1038.82	14.96
1039.12	17.04
1039.42	22.46
1039.72	3.48
1040.02	13.47
1040.32	19.57
1040.62	12.75
1040.93	10.94
1041.23	11.75
1041.53	13.69
1041.83	15.37
1042.13	6.42
1042.43	20.88
1042.73	6.60
1043.03	5.42
1043.33	-2.98
1043.63	9.54
1043.93	7.05
1044.24	11.30
1044.54	15.14
1044.84	12.43
1045.14	16.45
1045.44	22.01
1045.74	17.72
1046.04	8.63
1046.34	3.30
1046.64	22.69
1046.94	16.59
1047.24	18.94
1047.54	5.51
1047.84	12.88
1048.14	8.36
1048.44	9.72
1048.74	6.96
1049.04	30.28
1049.34	5.51
1049.64	13.56
1049.94	35.12
1050.24	21.83
1050.54	12.38
1050.84	23.59
1051.14	17.36
1051.44	11.66
1051.74	10.67
1052.04	28.75
1052.34	20.38
1052.64	21.60
1052.93	20.65
1053.23	14.15
1053.53	19.62
1053.83	16.54
1054.13	26.94
1054.43	32.63
1054.73	45.78
1055.03	24.13
1055.33	29.60
1055.63	24.36
1055.93	30.69
1056.22	16.77
1056.52	30.24
1056.82	31.14
1057.12	33.36
1057.42	41.81
1057.72	35.43
1058.02	45.33
1058.31	40.22
1058.61	48.86
1058.91	46.33
1059.21	42.17
1059.51	45.29
1059.81	47.77
1060.11	65.63
1060.40	64.00
1060.70	65.44
1061.00	91.75
1061.30	74.26
1061.60	76.52
1061.89	102.87
1062.19	105.31
1062.49	110.51
1062.79	124.15
1063.09	142.55
1063.38	140.11
1063.68	142.32
1063.98	161.62
1064.28	188.47
1064.57	206.05
1064.87	208.04
1065.17	243.25
1065.47	302.73
1065.76	340.19
1066.06	409.62
1066.36	661.23
1066.66	1321.19
1066.95	2277.00
1067.25	3099.62
1067.55	3308.16
1067.84	2758.30
1068.14	1856.18
1068.44	1016.29
1068.74	508.82
1069.03	319.18
1069.33	261.73
1069.63	241.71
1069.92	196.65
1070.22	160.58
1070.52	149.06
1070.81	152.67
1071.11	132.29
1071.41	125.33
1071.70	112.40
1072.00	107.84
1072.30	89.53
1072.59	97.62
1072.89	78.14
1073.19	86.96
1073.48	69.47
1073.78	52.38
1074.07	49.17
1074.37	61.20
1074.67	56.00
1074.96	51.25
1075.26	39.86
1075.55	32.45
1075.85	41.58
1076.15	38.28
1076.44	40.04
1076.74	30.96
1077.03	27.30
1077.33	21.60
1077.62	33.08
1077.92	27.57
1078.22	22.19
1078.51	17.94
1078.81	15.95
1079.10	8.90
1079.40	26.08
1079.69	17.08
1079.99	23.19
1080.28	9.81
1080.58	14.78
1080.87	25.94
1081.17	14.64
1081.46	21.20
1081.76	-4.52
1082.05	16.59
1082.35	18.85
1082.64	15.37
1082.94	12.97
1083.23	11.25
1083.53	5.97
1083.82	16.32
1084.12	14.82
1084.41	11.53
1084.71	17.45
1085.00	19.25
1085.30	10.53
1085.59	19.30
1085.88	8.14
1086.18	8.50
1086.47	8.18
1086.77	15.55
1087.06	12.07
1087.36	0.68
1087.65	7.73
1087.94	1.67
1088.24	15.68
1088.53	16.09
1088.83	10.35
1089.12	9.90
1089.41	8.18
1089.71	14.10
1090.00	7.32
1090.29	9.76
1090.59	15.28
1090.88	-1.63
1091.18	5.42
1091.47	14.33
1091.76	6.33
1092.06	15.14
1092.35	21.65
1092.64	14.78
1092.94	17.40
1093.23	22.69
1093.52	3.66
1093.82	15.77
1094.11	20.97
1094.40	11.84
1094.69	5.29
1094.99	15.55
1095.28	10.76
1095.57	14.46
1095.87	11.34
1096.16	-3.93
1096.45	5.06
1096.74	13.65
1097.04	17.22
1097.33	14.73
1097.62	-2.40
1097.92	10.80
1098.21	12.75
1098.50	16.09
1098.79	8.81
1099.08	20.07
1099.38	14.60
1099.67	11.48
1099.96	14.24
1100.25	11.53
1100.55	9.58
1100.84	16.77
1101.13	22.91
1101.42	-2.89
1101.71	8.86
1102.01	2.26
1102.30	3.84
1102.59	-0.23
1102.88	-1.63
1103.17	-4.29
1103.47	9.90
1103.76	2.67
1104.05	4.29
1104.34	7.41
1104.63	-5.69
1104.92	7.82
1105.21	12.75
1105.51	13.60
1105.80	15.68
1106.09	6.42
1106.38	17.67
1106.67	11.30
1106.96	18.03
1107.25	0.72
1107.54	8.50
1107.84	12.11
1108.13	12.02
1108.42	4.16
1108.71	7.01
1109.00	8.45
1109.29	9.90
1109.58	2.44
1109.87	6.51
1110.16	1.72
1110.45	8.72
1110.74	1.31
1111.03	5.24
1111.32	21.78
1111.61	4.07
1111.90	2.89
1112.20	9.54
1112.49	9.13
1112.78	14.64
1113.07	6.69
1113.36	14.87
1113.65	8.86
1113.94	15.14
1114.23	12.02
1114.52	9.22
1114.81	17.31
1115.10	9.31
1115.39	8.41
1115.68	8.59
1115.97	5.97
1116.26	7.91
1116.55	23.46
1116.83	8.27
1117.12	8.59
1117.41	12.11
1117.70	5.60
1117.99	7.28
1118.28	2.76
1118.57	9.08
1118.86	-1.99
1119.15	10.62
1119.44	22.55
1119.73	6.42
1120.02	3.89
1120.31	11.80
1120.60	11.89
1120.88	7.95
1121.17	12.11
1121.46	-6.92
1121.75	14.78
1122.04	14.37
1122.33	1.85
1122.62	16.50
1122.91	12.66
1123.20	2.67
1123.48	0.90
1123.77	13.02
1124.06	12.43
>>>>>End Processed Spectral Data<<<<<
