SpectraSuite Data File
++++++++++++++++++++++++++++++++++++
Date: Fri Aug 18 15:35:57 EST 2017
User: z3470068
Dark Spectrum Present: Yes
Reference Spectrum Present: No
Number of Sampled Component Spectra: 1
Spectrometers: USB2+F03475
Integration Time (usec): 5000 (USB2+F03475)
Spectra Averaged: 50 (USB2+F03475)
Boxcar Smoothing: 0 (USB2+F03475)
Correct for Electrical Dark: No (USB2+F03475)
Strobe/Lamp Enabled: No (USB2+F03475)
Correct for Detector Non-linearity: No (USB2+F03475)
Correct for Stray Light: No (USB2+F03475)
Number of Pixels in Processed Spectrum: 2048
>>>>>Begin Processed Spectral Data<<<<<
441.04	-33.17
441.42	-33.17
441.79	-33.17
442.17	-22.60
442.55	-30.64
442.93	-39.37
443.31	-36.79
443.68	-35.57
444.06	-23.73
444.44	-27.66
444.82	-27.75
445.19	-23.28
445.57	-27.98
445.95	-36.70
446.33	-37.97
446.70	-31.28
447.08	-29.38
447.46	-25.26
447.84	-20.56
448.21	-24.59
448.59	-21.24
448.97	-29.15
449.35	-30.33
449.72	-30.28
450.10	-36.11
450.48	-36.93
450.85	-28.16
451.23	-22.69
451.61	-33.67
451.98	-27.93
452.36	-27.62
452.74	-33.94
453.11	-33.54
453.49	-28.79
453.87	-22.15
454.24	-28.43
454.62	-28.65
455.00	-28.34
455.37	-27.57
455.75	-31.32
456.13	-27.21
456.50	-28.84
456.88	-25.13
457.26	-40.22
457.63	-24.32
458.01	-13.20
458.38	-28.47
458.76	-34.21
459.14	-33.31
459.51	-21.51
459.89	-32.54
460.26	-18.85
460.64	-30.64
461.02	-26.53
461.39	-18.80
461.77	-29.65
462.14	-10.76
462.52	-20.43
462.89	-23.14
463.27	-23.32
463.65	-24.32
464.02	-21.02
464.40	-36.07
464.77	-31.32
465.15	-28.07
465.52	-31.64
465.90	-13.60
466.27	-8.27
466.65	-37.83
467.02	-34.67
467.40	-23.05
467.77	-24.86
468.15	-27.93
468.52	-29.78
468.90	-27.98
469.27	-15.50
469.65	-24.81
470.02	-21.78
470.40	-23.64
470.77	-21.51
471.15	-37.87
471.52	-38.19
471.90	-22.73
472.27	-22.91
472.65	-41.08
473.02	-24.23
473.39	-42.53
473.77	-64.04
474.14	-20.47
474.52	-32.13
474.89	-13.74
475.27	-17.54
475.64	-21.38
476.01	-26.89
476.39	-29.83
476.76	-24.59
477.14	-35.57
477.51	-20.61
477.88	-27.34
478.26	-37.24
478.63	-20.11
479.01	-22.64
479.38	-20.61
479.75	-13.60
480.13	-24.95
480.50	-52.97
480.87	-25.45
481.25	-35.98
481.62	-22.37
481.99	-36.07
482.37	-35.98
482.74	-15.37
483.11	-25.36
483.49	-16.90
483.86	-17.27
484.23	-24.95
484.61	-31.23
484.98	-32.04
485.35	-19.93
485.73	-43.16
486.10	-37.20
486.47	-17.45
486.84	-25.17
487.22	-24.68
487.59	-36.88
487.96	-16.72
488.34	-38.06
488.71	-26.08
489.08	-29.29
489.45	-30.19
489.83	-26.94
490.20	-29.42
490.57	-26.17
490.94	-24.00
491.32	-26.49
491.69	-23.59
492.06	-15.68
492.43	-22.37
492.81	-31.37
493.18	-31.28
493.55	-29.60
493.92	-25.54
494.29	-38.96
494.67	-33.49
495.04	-32.27
495.41	-14.78
495.78	-23.64
496.15	-18.53
496.52	-21.47
496.90	-27.43
497.27	-22.10
497.64	-36.29
498.01	-36.52
498.38	-55.32
498.75	-40.54
499.13	-12.43
499.50	-18.85
499.87	-39.14
500.24	-34.08
500.61	-14.78
500.98	-31.37
501.35	-21.02
501.73	-28.29
502.10	-20.25
502.47	-22.51
502.84	-18.76
503.21	-22.87
503.58	-30.42
503.95	-20.97
504.32	-30.10
504.69	-32.77
505.06	-26.12
505.43	-24.27
505.81	-22.15
506.18	-31.82
506.55	-30.10
506.92	-39.59
507.29	-35.30
507.66	-20.79
508.03	-23.10
508.40	-33.58
508.77	-21.15
509.14	-24.95
509.51	-14.46
509.88	-31.77
510.25	-42.08
510.62	-22.96
510.99	-22.06
511.36	-21.02
511.73	-34.58
512.10	-26.98
512.47	-34.89
512.84	-29.33
513.21	-26.03
513.58	-42.94
513.95	-36.38
514.32	-33.54
514.69	-33.31
515.06	-33.85
515.43	-27.39
515.80	-25.54
516.17	-27.57
516.54	-20.47
516.91	-41.08
517.28	-34.71
517.64	-28.29
518.01	-31.46
518.38	-19.84
518.75	-18.58
519.12	-32.04
519.49	-28.43
519.86	-23.10
520.23	-36.02
520.60	-29.02
520.97	-40.59
521.34	-40.00
521.70	-24.27
522.07	-22.78
522.44	-39.10
522.81	-35.84
523.18	-29.97
523.55	-36.52
523.92	-11.07
524.29	-20.25
524.65	-33.58
525.02	-39.73
525.39	-23.10
525.76	-27.30
526.13	-34.71
526.50	-35.61
526.86	-30.15
527.23	-25.36
527.60	-18.12
527.97	-27.80
528.34	-32.50
528.70	-40.32
529.07	-23.01
529.44	-23.19
529.81	-32.81
530.18	-38.64
530.54	-15.37
530.91	-19.84
531.28	-21.33
531.65	-21.65
532.02	-28.65
532.38	-26.39
532.75	-26.94
533.12	-18.44
533.49	-45.42
533.85	-27.52
534.22	-26.30
534.59	-34.98
534.96	-22.69
535.32	-15.05
535.69	-29.87
536.06	-20.47
536.42	-34.12
536.79	-39.50
537.16	-30.69
537.53	-29.29
537.89	-29.69
538.26	-30.19
538.63	-21.38
538.99	-38.78
539.36	-42.80
539.73	-35.84
540.09	-24.77
540.46	-34.08
540.83	-36.56
541.19	-21.29
541.56	-25.04
541.93	-32.99
542.29	-39.68
542.66	-28.97
543.03	-26.17
543.39	-26.71
543.76	-18.39
544.12	-22.87
544.49	-18.39
544.86	-24.72
545.22	-12.02
545.59	-25.40
545.95	-32.50
546.32	-31.82
546.69	-36.88
547.05	-14.06
547.42	-32.41
547.78	-30.96
548.15	-17.49
548.52	-38.64
548.88	-27.52
549.25	-35.30
549.61	-25.49
549.98	-21.74
550.34	-23.19
550.71	-19.66
551.07	-19.84
551.44	-22.46
551.81	-17.04
552.17	-9.81
552.54	-22.15
552.90	-28.84
553.27	-31.19
553.63	-21.78
554.00	-30.33
554.36	-28.56
554.73	-36.07
555.09	-37.38
555.46	-31.55
555.82	-19.48
556.19	-36.61
556.55	-24.86
556.92	-41.26
557.28	-23.55
557.64	-43.80
558.01	-32.90
558.37	-42.94
558.74	-26.62
559.10	-23.86
559.47	-12.20
559.83	-25.49
560.20	-21.78
560.56	-29.69
560.92	-36.34
561.29	-32.36
561.65	-23.10
562.02	-18.85
562.38	-34.39
562.75	-28.84
563.11	-22.10
563.47	-26.62
563.84	-30.01
564.20	-32.59
564.57	-28.25
564.93	-21.92
565.29	-12.56
565.66	-29.20
566.02	-23.77
566.38	-27.71
566.75	-20.88
567.11	-35.52
567.47	-24.68
567.84	-31.10
568.20	-24.50
568.56	-27.98
568.93	-33.45
569.29	-24.59
569.65	-35.39
570.02	-18.21
570.38	-23.37
570.74	-28.56
571.11	-18.03
571.47	-22.06
571.83	-28.25
572.20	-25.54
572.56	-33.17
572.92	-29.97
573.28	-34.12
573.65	-24.59
574.01	-32.81
574.37	-28.29
574.74	-18.03
575.10	-29.38
575.46	-18.98
575.82	-36.29
576.19	-29.33
576.55	-28.97
576.91	-27.07
577.27	-21.74
577.63	-30.42
578.00	-21.60
578.36	-15.23
578.72	-30.06
579.08	-14.42
579.45	-27.25
579.81	-29.38
580.17	-34.76
580.53	-26.89
580.89	-15.91
581.26	-22.51
581.62	-35.71
581.98	-30.46
582.34	-28.02
582.70	-11.75
583.06	-29.24
583.43	-36.29
583.79	-21.02
584.15	-23.14
584.51	-20.52
584.87	-25.58
585.23	-28.56
585.59	-28.34
585.96	-17.63
586.32	-32.50
586.68	-8.36
587.04	-32.32
587.40	-31.28
587.76	-18.12
588.12	-31.91
588.48	-34.85
588.84	-29.97
589.21	-25.17
589.57	-31.91
589.93	-17.40
590.29	-24.77
590.65	-28.38
591.01	-21.11
591.37	-27.57
591.73	-26.35
592.09	-24.99
592.45	-19.30
592.81	-15.50
593.17	-25.13
593.53	-15.55
593.89	-33.63
594.25	-21.69
594.61	-35.71
594.97	-30.28
595.33	-26.30
595.69	-28.11
596.05	-28.43
596.41	-20.65
596.77	-36.79
597.13	-31.41
597.49	-39.95
597.85	-33.22
598.21	-33.72
598.57	-31.46
598.93	-24.23
599.29	-20.47
599.65	-17.85
600.01	-14.19
600.37	-33.04
600.73	-34.85
601.09	-17.72
601.45	-22.64
601.81	-19.16
602.17	-32.00
602.53	-17.54
602.89	-26.21
603.25	-24.99
603.61	-15.37
603.97	-42.03
604.32	-36.16
604.68	-36.97
605.04	-39.00
605.40	-22.28
605.76	-28.88
606.12	-42.03
606.48	-38.10
606.84	-31.95
607.20	-17.04
607.55	-27.66
607.91	-30.37
608.27	-34.71
608.63	-27.21
608.99	-26.26
609.35	-33.67
609.71	-29.65
610.06	-35.57
610.42	-26.76
610.78	-28.70
611.14	-34.26
611.50	-22.06
611.86	-19.43
612.21	-22.87
612.57	-31.46
612.93	-31.14
613.29	-24.86
613.65	-26.62
614.00	-30.51
614.36	-10.98
614.72	-32.23
615.08	-39.64
615.44	-18.21
615.79	-26.53
616.15	-21.42
616.51	-21.83
616.87	-26.44
617.22	-29.56
617.58	-17.63
617.94	-24.99
618.30	-20.97
618.65	-26.03
619.01	-20.25
619.37	-23.86
619.73	-17.49
620.08	-23.10
620.44	-18.98
620.80	-28.93
621.15	-16.72
621.51	-32.59
621.87	-42.58
622.22	-22.96
622.58	-26.30
622.94	-27.75
623.30	-25.22
623.65	-16.45
624.01	-35.03
624.37	-24.81
624.72	-29.29
625.08	-33.22
625.44	-29.06
625.79	-28.70
626.15	-31.19
626.50	-33.94
626.86	-24.41
627.22	-19.57
627.57	-35.34
627.93	-25.17
628.29	-34.71
628.64	-27.43
629.00	-16.77
629.35	-27.03
629.71	-24.54
630.07	-26.53
630.42	-37.65
630.78	-30.10
631.13	-22.19
631.49	-26.58
631.85	-29.11
632.20	-33.67
632.56	-16.90
632.91	-29.83
633.27	-30.73
633.62	-34.89
633.98	-28.11
634.34	-23.64
634.69	-19.30
635.05	-33.17
635.40	-29.38
635.76	-42.26
636.11	-17.27
636.47	-15.05
636.82	-20.25
637.18	-24.50
637.53	-32.13
637.89	-35.07
638.24	-15.82
638.60	-30.19
638.95	-29.33
639.31	-20.07
639.66	-32.41
640.02	-28.25
640.37	-22.33
640.73	-25.31
641.08	-27.89
641.44	-24.13
641.79	-15.32
642.14	-23.50
642.50	-23.82
642.85	-17.08
643.21	-22.42
643.56	-26.67
643.92	-22.64
644.27	-23.37
644.63	-16.54
644.98	-22.73
645.33	-36.29
645.69	-21.56
646.04	-36.47
646.40	-22.37
646.75	-23.77
647.10	-20.65
647.46	-33.54
647.81	-19.52
648.17	-23.73
648.52	-35.16
648.87	-29.65
649.23	-37.69
649.58	-17.54
649.93	-22.15
650.29	-19.93
650.64	-24.23
650.99	-18.62
651.35	-32.63
651.70	-37.69
652.05	-24.00
652.41	-17.85
652.76	-27.71
653.11	-30.24
653.47	-27.34
653.82	-24.18
654.17	-36.20
654.53	-36.65
654.88	-27.43
655.23	-29.51
655.58	-21.20
655.94	-30.37
656.29	-18.71
656.64	-25.90
657.00	-19.93
657.35	-22.64
657.70	-29.97
658.05	-33.40
658.41	-12.88
658.76	-19.21
659.11	-11.30
659.46	-28.07
659.82	-27.80
660.17	-24.04
660.52	-17.13
660.87	-11.62
661.23	-29.56
661.58	-23.82
661.93	-21.88
662.28	-22.19
662.63	-20.52
662.99	-22.60
663.34	-24.36
663.69	-23.95
664.04	-31.68
664.39	-33.63
664.74	-29.24
665.10	-17.94
665.45	-25.63
665.80	-25.81
666.15	-17.63
666.50	-23.05
666.85	-19.07
667.21	-7.37
667.56	-31.14
667.91	-26.67
668.26	-28.47
668.61	-25.08
668.96	-25.13
669.31	-24.23
669.66	-24.32
670.02	-31.95
670.37	-7.64
670.72	-19.39
671.07	-24.81
671.42	-32.63
671.77	-31.32
672.12	-27.71
672.47	-30.87
672.82	-21.69
673.17	-19.71
673.52	-28.52
673.88	-28.16
674.23	-24.50
674.58	-27.43
674.93	-31.50
675.28	-41.54
675.63	-19.30
675.98	-10.80
676.33	-28.47
676.68	-18.44
677.03	-22.91
677.38	-26.49
677.73	-24.45
678.08	-29.69
678.43	-19.98
678.78	-26.08
679.13	-8.14
679.48	-28.38
679.83	-11.93
680.18	-8.81
680.53	-17.40
680.88	-21.60
681.23	-21.06
681.58	-17.90
681.93	-33.17
682.28	-40.22
682.63	-26.17
682.98	-21.24
683.33	-23.50
683.68	-24.95
684.02	-9.31
684.37	-10.26
684.72	-23.59
685.07	-27.43
685.42	-9.27
685.77	-23.77
686.12	-37.56
686.47	-34.39
686.82	-34.89
687.17	-30.78
687.52	-22.96
687.86	-25.85
688.21	-20.07
688.56	-34.48
688.91	-17.45
689.26	-22.33
689.61	-27.52
689.96	-34.67
690.31	-22.10
690.65	-33.76
691.00	-23.77
691.35	-25.54
691.70	-30.78
692.05	-17.76
692.40	-19.80
692.74	-26.62
693.09	-25.08
693.44	-16.41
693.79	-17.90
694.14	-22.15
694.49	-30.51
694.83	-30.24
695.18	-14.69
695.53	-19.03
695.88	-16.68
696.23	-33.67
696.57	-26.53
696.92	-22.78
697.27	-13.78
697.62	-19.48
697.96	-24.41
698.31	-24.13
698.66	-19.07
699.01	-24.50
699.35	-15.28
699.70	-14.91
700.05	-17.54
700.40	-24.72
700.74	-14.64
701.09	-17.04
701.44	-15.86
701.79	-13.51
702.13	-15.73
702.48	-20.11
702.83	-25.04
703.17	-14.51
703.52	-18.71
703.87	-15.23
704.21	-19.48
704.56	-26.08
704.91	-29.38
705.25	-21.15
705.60	-27.16
705.95	-16.68
706.29	-13.24
706.64	-25.81
706.99	-10.44
707.33	-16.54
707.68	-13.24
708.03	-20.79
708.37	-21.02
708.72	-16.23
709.07	-5.56
709.41	-9.04
709.76	-23.95
710.10	-15.82
710.45	-1.36
710.80	-7.73
711.14	-20.38
711.49	-25.90
711.83	-17.08
712.18	-15.37
712.53	-12.43
712.87	-8.09
713.22	-4.11
713.56	-10.94
713.91	-19.71
714.25	-15.77
714.60	-3.34
714.95	-25.67
715.29	-1.54
715.64	-17.81
715.98	-16.45
716.33	-28.61
716.67	-23.86
717.02	-1.31
717.36	-12.75
717.71	-14.82
718.05	-8.18
718.40	-9.45
718.74	-14.42
719.09	5.79
719.43	2.08
719.78	-6.96
720.12	-20.34
720.47	-5.60
720.81	-1.63
721.16	-2.31
721.50	-11.62
721.85	-5.83
722.19	-9.81
722.54	-7.19
722.88	-5.29
723.22	-8.45
723.57	-9.40
723.91	0.45
724.26	3.71
724.60	1.63
724.95	-4.97
725.29	-6.69
725.63	0.41
725.98	13.78
726.32	5.06
726.67	4.16
727.01	0.77
727.35	12.70
727.70	15.01
728.04	18.21
728.39	4.75
728.73	16.27
729.07	5.83
729.42	21.69
729.76	4.43
730.10	-1.76
730.45	10.08
730.79	7.59
731.13	10.53
731.48	14.15
731.82	2.35
732.17	23.68
732.51	12.07
732.85	-0.23
733.19	29.02
733.54	17.63
733.88	19.71
734.22	21.29
734.57	14.01
734.91	22.33
735.25	42.21
735.60	30.69
735.94	38.24
736.28	40.72
736.62	39.14
736.97	31.77
737.31	37.60
737.65	36.56
738.00	30.28
738.34	32.54
738.68	37.78
739.02	54.37
739.37	42.35
739.71	49.31
740.05	43.25
740.39	38.64
740.73	52.25
741.08	52.61
741.42	47.46
741.76	51.03
742.10	42.89
742.44	65.81
742.79	51.25
743.13	57.63
743.47	75.75
743.81	63.37
744.15	65.99
744.50	68.56
744.84	73.99
745.18	73.58
745.52	77.51
745.86	80.72
746.20	76.88
746.55	101.51
746.89	101.15
747.23	91.79
747.57	102.82
747.91	98.62
748.25	101.74
748.59	126.60
748.94	124.06
749.28	117.78
749.62	126.41
749.96	120.36
750.30	126.19
750.64	121.58
750.98	129.85
751.32	154.35
751.66	146.30
752.00	143.27
752.34	152.76
752.69	157.42
753.03	164.92
753.37	171.88
753.71	166.46
754.05	169.35
754.39	182.96
754.73	177.35
755.07	185.76
755.41	192.09
755.75	196.56
756.09	212.83
756.43	223.36
756.77	242.93
757.11	232.17
757.45	233.94
757.79	238.32
758.13	251.29
758.47	277.60
758.81	277.24
759.15	285.24
759.49	295.68
759.83	277.51
760.17	300.92
760.51	310.64
760.85	335.49
761.19	332.92
761.53	324.78
761.87	362.88
762.21	358.27
762.55	373.14
762.89	399.04
763.23	402.48
763.57	393.71
763.91	404.37
764.24	449.98
764.58	480.71
764.92	496.17
765.26	504.03
765.60	512.21
765.94	512.89
766.28	542.22
766.62	556.55
766.96	596.14
767.30	619.55
767.63	596.10
767.97	583.13
768.31	603.37
768.65	613.68
768.99	660.05
769.33	700.73
769.67	726.85
770.00	741.22
770.34	773.67
770.68	785.92
771.02	805.22
771.36	827.96
771.70	840.93
772.03	865.47
772.37	890.69
772.71	898.78
773.05	904.83
773.39	935.34
773.73	999.84
774.06	1041.06
774.40	1019.32
774.74	1090.05
775.08	1081.24
775.41	1127.52
775.75	1166.93
776.09	1219.54
776.43	1179.77
776.77	1196.67
777.10	1215.43
777.44	1325.16
777.78	1406.29
778.12	1441.68
778.45	1466.27
778.79	1386.99
779.13	1418.18
779.46	1515.49
779.80	1492.39
780.14	1555.26
780.48	1569.72
780.81	1658.62
781.15	1752.27
781.49	1736.63
781.82	1823.36
782.16	1890.03
782.50	1971.43
782.84	1993.85
783.17	2050.93
783.51	2155.51
783.85	2323.87
784.18	2275.65
784.52	2362.83
784.86	2479.35
785.19	2613.76
785.53	2707.45
785.86	2814.52
786.20	2914.59
786.54	3053.66
786.87	3055.15
787.21	3082.59
787.55	3124.57
787.88	3154.76
788.22	3232.82
788.55	3373.15
788.89	3746.43
789.23	3846.27
789.56	3751.54
789.90	3910.68
790.23	4263.48
790.57	4545.69
790.91	4711.20
791.24	4708.71
791.58	5107.30
791.91	5264.00
792.25	5517.69
792.58	5738.97
792.92	6182.75
793.26	7019.52
793.59	7822.21
793.93	7486.67
794.26	7474.74
794.60	8357.88
794.93	9167.94
795.27	9731.18
795.60	10951.71
795.94	12137.81
796.27	12326.73
796.61	11893.74
796.94	12276.74
797.28	14070.64
797.61	14937.23
797.95	14833.73
798.28	15309.79
798.62	16067.78
798.95	17304.86
799.29	18058.87
799.62	19459.83
799.96	20270.65
800.29	21366.17
800.63	24565.37
800.96	29518.41
801.29	32544.86
801.63	31469.05
801.96	30836.57
802.30	34783.40
802.63	35831.37
802.97	34522.75
803.30	34895.72
803.63	35042.78
803.97	36536.30
804.30	39715.70
804.64	40272.97
804.97	38257.30
805.30	39756.24
805.64	38021.69
805.97	35539.18
806.31	35278.48
806.64	31678.44
806.97	26580.50
807.31	24930.96
807.64	24939.10
807.97	25426.59
808.31	24250.66
808.64	21417.47
808.97	18653.11
809.31	16444.67
809.64	14614.85
809.97	13013.94
810.31	11198.98
810.64	10144.82
810.97	9312.43
811.31	8375.10
811.64	8059.99
811.97	7886.39
812.31	6923.89
812.64	6312.51
812.97	6382.52
813.30	5716.46
813.64	5008.68
813.97	4692.22
814.30	4082.02
814.64	3749.69
814.97	3367.41
815.30	3029.80
815.63	2552.16
815.97	2535.39
816.30	2567.39
816.63	2467.19
816.96	2080.40
817.30	1918.82
817.63	1798.91
817.96	1782.05
818.29	1700.57
818.62	1557.70
818.96	1540.30
819.29	1523.49
819.62	1384.10
819.95	1138.14
820.28	1053.49
820.62	1032.15
820.95	954.46
821.28	904.65
821.61	835.32
821.94	786.37
822.28	756.95
822.61	770.01
822.94	737.88
823.27	667.15
823.60	591.26
823.93	547.96
824.26	519.31
824.60	494.86
824.93	480.53
825.26	433.98
825.59	408.71
825.92	384.35
826.25	373.01
826.58	369.17
826.91	339.02
827.25	347.97
827.58	335.67
827.91	313.30
828.24	300.60
828.57	278.46
828.90	264.99
829.23	256.45
829.56	248.54
829.89	263.50
830.22	231.90
830.55	230.95
830.88	208.04
831.21	195.34
831.54	162.35
831.87	169.62
832.21	166.23
832.54	144.31
832.87	146.98
833.20	152.31
833.53	144.18
833.86	142.05
834.19	134.05
834.52	121.58
834.85	113.40
835.18	104.58
835.51	122.53
835.84	113.90
836.17	93.24
836.50	110.82
836.83	93.69
837.16	96.72
837.49	77.74
837.81	82.53
838.14	71.68
838.47	76.74
838.80	64.63
839.13	68.61
839.46	81.44
839.79	62.78
840.12	52.65
840.45	57.99
840.78	56.13
841.11	42.30
841.44	36.97
841.77	57.81
842.10	50.35
842.42	33.04
842.75	53.06
843.08	31.91
843.41	36.02
843.74	32.04
844.07	46.33
844.40	30.33
844.73	24.90
845.06	14.82
845.38	25.45
845.71	28.16
846.04	24.04
846.37	33.40
846.70	28.20
847.03	35.39
847.35	20.79
847.68	15.59
848.01	6.06
848.34	7.28
848.67	22.28
849.00	7.68
849.32	3.25
849.65	14.96
849.98	-0.27
850.31	17.22
850.64	3.16
850.96	6.69
851.29	14.64
851.62	2.62
851.95	7.95
852.27	12.84
852.60	7.10
852.93	3.98
853.26	-1.27
853.58	-7.46
853.91	-4.56
854.24	-8.86
854.57	15.46
854.89	6.37
855.22	-10.44
855.55	-4.52
855.88	-7.23
856.20	-9.36
856.53	-6.37
856.86	-2.12
857.18	-9.99
857.51	-10.53
857.84	2.67
858.17	-7.86
858.49	-4.88
858.82	5.92
859.15	-11.57
859.47	-6.87
859.80	-11.25
860.13	-2.76
860.45	-12.29
860.78	-10.35
861.11	-15.82
861.43	-10.80
861.76	-21.29
862.08	-5.06
862.41	0.99
862.74	-14.87
863.06	-7.86
863.39	-17.63
863.72	-12.34
864.04	-8.23
864.37	4.93
864.69	-20.47
865.02	-12.20
865.35	-5.83
865.67	-11.12
866.00	-15.10
866.32	-16.63
866.65	0.45
866.97	-12.29
867.30	-4.52
867.63	-20.07
867.95	-3.80
868.28	-13.02
868.60	1.08
868.93	-17.99
869.25	-16.14
869.58	-10.67
869.90	-18.26
870.23	-22.51
870.55	-12.20
870.88	-11.75
871.20	-18.76
871.53	-22.01
871.85	-8.45
872.18	-13.38
872.50	-33.45
872.83	-8.81
873.15	-23.19
873.48	-9.76
873.80	-20.79
874.13	-23.64
874.45	-20.93
874.78	-24.00
875.10	-19.89
875.43	-8.59
875.75	-21.15
876.08	-5.65
876.40	-20.75
876.73	-16.32
877.05	-29.87
877.37	-8.27
877.70	-20.34
878.02	-16.77
878.35	-22.33
878.67	-23.59
878.99	-29.20
879.32	-31.00
879.64	5.42
879.97	-17.08
880.29	-19.71
880.61	-12.79
880.94	-17.45
881.26	-12.75
881.59	-10.62
881.91	-18.03
882.23	-19.30
882.56	-17.22
882.88	-24.36
883.20	-19.48
883.53	-22.15
883.85	-23.82
884.17	-23.14
884.50	-21.51
884.82	-13.47
885.14	-24.36
885.47	-19.66
885.79	-27.89
886.11	-23.59
886.44	-23.32
886.76	-27.84
887.08	-2.98
887.41	-19.30
887.73	-17.94
888.05	-30.64
888.37	-27.43
888.70	-12.34
889.02	-20.93
889.34	-15.64
889.66	-30.51
889.99	-37.02
890.31	-18.62
890.63	-16.77
890.95	-20.43
891.28	-20.47
891.60	-22.73
891.92	-23.23
892.24	-30.15
892.57	-21.97
892.89	-27.98
893.21	-24.68
893.53	-16.41
893.85	-19.39
894.18	-24.04
894.50	-15.68
894.82	-26.30
895.14	-28.97
895.46	-24.50
895.79	-26.62
896.11	-21.83
896.43	-23.10
896.75	-30.64
897.07	-16.32
897.39	-35.07
897.72	-32.72
898.04	-34.62
898.36	-17.58
898.68	-21.11
899.00	-22.19
899.32	-24.04
899.64	-18.26
899.97	-11.71
900.29	-11.66
900.61	-18.17
900.93	-35.21
901.25	-34.58
901.57	-23.46
901.89	-23.68
902.21	-24.27
902.53	-18.08
902.85	-19.62
903.18	-32.45
903.50	-8.72
903.82	-26.49
904.14	-24.95
904.46	-32.63
904.78	-39.91
905.10	-16.68
905.42	-29.42
905.74	-23.68
906.06	-26.98
906.38	-27.62
906.70	-39.59
907.02	-28.75
907.34	-22.37
907.66	-25.54
907.98	-29.02
908.30	-18.39
908.62	-16.50
908.94	-26.35
909.26	-32.86
909.58	-27.57
909.90	-27.71
910.22	-27.93
910.54	-21.06
910.86	-31.41
911.18	-34.76
911.50	-36.29
911.82	-29.87
912.14	-15.10
912.46	-43.07
912.78	-30.51
913.10	-32.32
913.42	-22.69
913.74	-27.80
914.06	-17.31
914.37	-30.19
914.69	-33.49
915.01	-26.03
915.33	-32.50
915.65	-22.51
915.97	-17.58
916.29	-28.47
916.61	-26.44
916.93	-30.64
917.25	-38.87
917.56	-25.04
917.88	-33.63
918.20	-31.95
918.52	-25.85
918.84	-23.59
919.16	-21.69
919.48	-21.38
919.79	-12.34
920.11	-23.77
920.43	-36.38
920.75	-28.70
921.07	-23.91
921.39	-39.55
921.70	-23.59
922.02	-31.64
922.34	-21.97
922.66	-24.68
922.98	-20.56
923.30	-18.53
923.61	-32.68
923.93	-17.72
924.25	-11.16
924.57	-18.26
924.88	-16.18
925.20	-0.27
925.52	-35.30
925.84	-33.54
926.16	-19.75
926.47	-31.41
926.79	-21.92
927.11	-23.05
927.43	-26.98
927.74	-22.24
928.06	-17.27
928.38	-36.29
928.69	-41.72
929.01	-38.64
929.33	-23.46
929.65	-19.21
929.96	-30.37
930.28	-36.25
930.60	-21.78
930.91	-25.58
931.23	-23.86
931.55	-23.86
931.86	-35.52
932.18	-29.20
932.50	-13.69
932.81	-29.24
933.13	-27.89
933.45	-21.02
933.76	-19.52
934.08	-33.08
934.40	-18.94
934.71	-18.03
935.03	-28.56
935.35	-34.53
935.66	-34.35
935.98	-15.41
936.29	-18.44
936.61	-25.85
936.93	-6.78
937.24	-17.13
937.56	-23.59
937.88	-17.49
938.19	-23.82
938.51	-33.08
938.82	-28.79
939.14	-24.27
939.45	-41.13
939.77	-22.51
940.09	-20.47
940.40	-28.11
940.72	-38.69
941.03	-21.51
941.35	-25.76
941.66	-28.25
941.98	-36.52
942.29	-10.98
942.61	-20.61
942.92	-21.11
943.24	-34.17
943.55	-34.58
943.87	-25.22
944.19	-25.81
944.50	-18.21
944.82	-24.00
945.13	-20.56
945.45	-33.13
945.76	-25.54
946.07	-17.99
946.39	-14.78
946.70	-7.05
947.02	-29.69
947.33	-15.19
947.65	-25.26
947.96	-29.29
948.28	-37.11
948.59	-30.96
948.91	-17.04
949.22	-35.98
949.53	-24.41
949.85	-29.02
950.16	-29.74
950.48	-19.16
950.79	-18.62
951.11	-19.89
951.42	-26.26
951.73	-25.49
952.05	-15.23
952.36	-22.51
952.68	-32.59
952.99	-40.90
953.30	-17.31
953.62	-29.87
953.93	-22.73
954.24	-36.43
954.56	-23.37
954.87	-19.84
955.19	-32.27
955.50	-46.46
955.81	-17.58
956.13	-30.10
956.44	-25.85
956.75	-17.90
957.07	-35.89
957.38	-20.07
957.69	-27.39
958.00	-22.64
958.32	-23.64
958.63	-16.45
958.94	-42.85
959.26	-28.38
959.57	-34.44
959.88	-35.03
960.20	-22.78
960.51	-31.14
960.82	-21.83
961.13	-26.35
961.45	-27.84
961.76	-26.76
962.07	-15.32
962.38	-27.48
962.70	-22.19
963.01	-21.33
963.32	-14.19
963.63	-31.19
963.95	-23.32
964.26	-21.47
964.57	-13.51
964.88	-22.15
965.19	-24.68
965.51	-22.73
965.82	-22.91
966.13	-20.65
966.44	-32.00
966.75	-32.00
967.07	-19.57
967.38	-28.84
967.69	-25.67
968.00	-20.97
968.31	-31.19
968.62	-35.93
968.94	-34.44
969.25	-28.25
969.56	-21.65
969.87	-39.32
970.18	-36.29
970.49	-27.62
970.80	-23.41
971.12	-33.99
971.43	-32.68
971.74	-40.09
972.05	-42.85
972.36	-28.16
972.67	-10.17
972.98	-12.29
973.29	-14.10
973.60	-23.77
973.92	-22.82
974.23	-29.42
974.54	-22.01
974.85	-29.56
975.16	-36.20
975.47	-26.71
975.78	-16.72
976.09	-21.20
976.40	-25.81
976.71	-27.39
977.02	-33.31
977.33	-12.93
977.64	-38.19
977.95	-27.39
978.26	-14.37
978.57	-26.98
978.88	-30.42
979.19	-24.63
979.50	-17.45
979.81	-29.15
980.12	-20.88
980.43	-28.43
980.74	-18.85
981.05	-35.12
981.36	-26.76
981.67	-33.13
981.98	-34.35
982.29	-24.77
982.60	-29.56
982.91	-23.41
983.22	-37.69
983.53	-25.13
983.84	-22.55
984.15	-27.84
984.46	-25.49
984.77	-30.15
985.08	-22.33
985.39	-37.02
985.70	-29.74
986.00	-21.38
986.31	-29.69
986.62	-15.28
986.93	-38.46
987.24	-23.01
987.55	-21.97
987.86	-26.17
988.17	-26.94
988.48	-25.31
988.79	-26.49
989.09	-31.73
989.40	-23.95
989.71	-35.66
990.02	-36.70
990.33	-25.76
990.64	-24.54
990.95	-36.74
991.25	-11.07
991.56	-21.97
991.87	-45.02
992.18	-31.68
992.49	-22.33
992.79	-26.30
993.10	-16.27
993.41	-35.61
993.72	-23.01
994.03	-25.90
994.33	-18.53
994.64	-16.77
994.95	-32.99
995.26	-16.95
995.57	-41.85
995.87	-19.12
996.18	-20.29
996.49	-24.68
996.80	-16.68
997.10	-12.29
997.41	-17.45
997.72	-32.41
998.03	-23.64
998.33	-28.75
998.64	-32.77
998.95	-28.93
999.26	-28.70
999.56	-23.19
999.87	-20.97
1000.18	-38.82
1000.48	-38.10
1000.79	-32.32
1001.10	-41.54
1001.41	-18.58
1001.71	-13.97
1002.02	-12.38
1002.33	-41.04
1002.63	-24.99
1002.94	-24.23
1003.25	-32.59
1003.55	-36.38
1003.86	-30.64
1004.17	-29.51
1004.47	-25.22
1004.78	-45.20
1005.08	-29.87
1005.39	-30.91
1005.70	-22.96
1006.00	-24.23
1006.31	-30.69
1006.62	-14.19
1006.92	-28.65
1007.23	-31.77
1007.53	-26.44
1007.84	-28.20
1008.15	-32.13
1008.45	-27.12
1008.76	-27.48
1009.06	-16.36
1009.37	-45.56
1009.68	-44.38
1009.98	-27.98
1010.29	-31.32
1010.59	-31.37
1010.90	-31.23
1011.20	-27.16
1011.51	-21.20
1011.81	-18.98
1012.12	-21.56
1012.42	-25.45
1012.73	-30.37
1013.04	-25.85
1013.34	-33.67
1013.65	-28.79
1013.95	-31.64
1014.26	-32.54
1014.56	-21.24
1014.87	-19.21
1015.17	-41.31
1015.48	-21.74
1015.78	-28.16
1016.09	-31.59
1016.39	-31.05
1016.69	-25.17
1017.00	-33.85
1017.30	-32.36
1017.61	-22.06
1017.91	-22.46
1018.22	-17.31
1018.52	-20.07
1018.83	-24.23
1019.13	-34.35
1019.43	-27.66
1019.74	-18.71
1020.04	-18.71
1020.35	-26.98
1020.65	-29.02
1020.96	-36.20
1021.26	-35.25
1021.56	-19.62
1021.87	-23.50
1022.17	-26.62
1022.48	-33.13
1022.78	-30.01
1023.08	-35.43
1023.39	-27.03
1023.69	-21.83
1023.99	-44.74
1024.30	-30.73
1024.60	-26.12
1024.90	-25.49
1025.21	-29.56
1025.51	-27.84
1025.81	-31.32
1026.12	-26.85
1026.42	-10.26
1026.72	-23.68
1027.03	-34.67
1027.33	-21.78
1027.63	-20.84
1027.94	-30.51
1028.24	-37.06
1028.54	-24.81
1028.85	-33.40
1029.15	-38.78
1029.45	-28.25
1029.75	-15.59
1030.06	-18.03
1030.36	-19.07
1030.66	-20.07
1030.96	-34.35
1031.27	-20.25
1031.57	-37.33
1031.87	-28.52
1032.17	-9.85
1032.48	-31.14
1032.78	-16.86
1033.08	-33.13
1033.38	-16.54
1033.69	-31.59
1033.99	-19.71
1034.29	-22.01
1034.59	-21.06
1034.89	-39.00
1035.20	-30.64
1035.50	-26.39
1035.80	-36.43
1036.10	-18.94
1036.40	-34.89
1036.71	-32.50
1037.01	-35.66
1037.31	-27.62
1037.61	-10.35
1037.91	-23.86
1038.21	-14.24
1038.52	-26.21
1038.82	-28.79
1039.12	-20.56
1039.42	-34.26
1039.72	-31.95
1040.02	-37.60
1040.32	-34.71
1040.62	-36.93
1040.93	-23.59
1041.23	-25.58
1041.53	-26.21
1041.83	-33.99
1042.13	-18.39
1042.43	-24.04
1042.73	-26.30
1043.03	-21.11
1043.33	-26.30
1043.63	-15.77
1043.93	-22.60
1044.24	-33.94
1044.54	-35.93
1044.84	-35.03
1045.14	-30.10
1045.44	-17.81
1045.74	-22.73
1046.04	-30.78
1046.34	-39.41
1046.64	-28.38
1046.94	-27.48
1047.24	-19.39
1047.54	-32.09
1047.84	-33.04
1048.14	-17.76
1048.44	-34.48
1048.74	-26.35
1049.04	-25.13
1049.34	-26.80
1049.64	-23.32
1049.94	-35.93
1050.24	-42.35
1050.54	-29.97
1050.84	-28.52
1051.14	-24.90
1051.44	-36.02
1051.74	-22.96
1052.04	-31.46
1052.34	-32.00
1052.64	-29.38
1052.93	-25.08
1053.23	-29.24
1053.53	-21.56
1053.83	-48.22
1054.13	-37.20
1054.43	-22.33
1054.73	-18.76
1055.03	-21.42
1055.33	-29.38
1055.63	-30.87
1055.93	-32.72
1056.22	-27.03
1056.52	-29.51
1056.82	-29.74
1057.12	-26.71
1057.42	-25.85
1057.72	-31.86
1058.02	-11.25
1058.31	-21.97
1058.61	-22.28
1058.91	-26.08
1059.21	-30.33
1059.51	-38.01
1059.81	-32.63
1060.11	-8.77
1060.40	-36.74
1060.70	-25.85
1061.00	-17.40
1061.30	-34.98
1061.60	-41.58
1061.89	-30.46
1062.19	-36.65
1062.49	-18.58
1062.79	-30.55
1063.09	-26.85
1063.38	-31.59
1063.68	-43.61
1063.98	-35.16
1064.28	-29.38
1064.57	-26.89
1064.87	-30.06
1065.17	-24.50
1065.47	-30.87
1065.76	-20.56
1066.06	-37.47
1066.36	-30.10
1066.66	-34.17
1066.95	-20.02
1067.25	-19.93
1067.55	-11.89
1067.84	-14.24
1068.14	-38.55
1068.44	-42.30
1068.74	-27.48
1069.03	-23.01
1069.33	-29.24
1069.63	-26.12
1069.92	-19.48
1070.22	-33.63
1070.52	-26.58
1070.81	-45.42
1071.11	-37.33
1071.41	-22.15
1071.70	-33.99
1072.00	-30.91
1072.30	-21.97
1072.59	-24.59
1072.89	-32.09
1073.19	-29.69
1073.48	-21.02
1073.78	-32.32
1074.07	-24.36
1074.37	-38.24
1074.67	-31.50
1074.96	-34.62
1075.26	-27.89
1075.55	-34.58
1075.85	-27.89
1076.15	-22.64
1076.44	-24.86
1076.74	-35.30
1077.03	-52.25
1077.33	-34.67
1077.62	-26.44
1077.92	-34.53
1078.22	-34.76
1078.51	-18.71
1078.81	-26.80
1079.10	-32.50
1079.40	-15.46
1079.69	-43.71
1079.99	-32.45
1080.28	-10.89
1080.58	-14.15
1080.87	-21.06
1081.17	-15.50
1081.46	-35.21
1081.76	-35.30
1082.05	-25.36
1082.35	-23.77
1082.64	-30.73
1082.94	-25.63
1083.23	-25.54
1083.53	-29.92
1083.82	-26.98
1084.12	-21.88
1084.41	-16.18
1084.71	-22.01
1085.00	-32.90
1085.30	-26.62
1085.59	-31.86
1085.88	-32.86
1086.18	-32.09
1086.47	-31.00
1086.77	-29.11
1087.06	-21.33
1087.36	-28.20
1087.65	-33.31
1087.94	-29.20
1088.24	-36.74
1088.53	-18.89
1088.83	-28.11
1089.12	-32.45
1089.41	-39.10
1089.71	-30.15
1090.00	-20.52
1090.29	-25.45
1090.59	-14.42
1090.88	-20.97
1091.18	-46.82
1091.47	-33.67
1091.76	-11.57
1092.06	-29.38
1092.35	-19.07
1092.64	-31.37
1092.94	-26.76
1093.23	-43.61
1093.52	-33.90
1093.82	-23.32
1094.11	-20.65
1094.40	-25.49
1094.69	-34.48
1094.99	-15.91
1095.28	-23.41
1095.57	-9.40
1095.87	-30.42
1096.16	-29.83
1096.45	-24.09
1096.74	-28.16
1097.04	-29.60
1097.33	-24.32
1097.62	-39.68
1097.92	-23.19
1098.21	-32.72
1098.50	-33.85
1098.79	-34.94
1099.08	-19.48
1099.38	-30.87
1099.67	-29.11
1099.96	-37.33
1100.25	-23.55
1100.55	-22.10
1100.84	-32.18
1101.13	-45.24
1101.42	-28.38
1101.71	-29.69
1102.01	-36.84
1102.30	-30.15
1102.59	-18.44
1102.88	-20.93
1103.17	-23.23
1103.47	-30.06
1103.76	-39.95
1104.05	-24.27
1104.34	-22.91
1104.63	-29.29
1104.92	-26.80
1105.21	-30.24
1105.51	-37.97
1105.80	-28.88
1106.09	-17.94
1106.38	-24.04
1106.67	-40.36
1106.96	-36.84
1107.25	-25.54
1107.54	-35.21
1107.84	-24.95
1108.13	-30.42
1108.42	-19.30
1108.71	-19.48
1109.00	-18.94
1109.29	-33.31
1109.58	-21.06
1109.87	-43.71
1110.16	-20.97
1110.45	-18.35
1110.74	-29.78
1111.03	-18.39
1111.32	-9.85
1111.61	-27.84
1111.90	-25.81
1112.20	-22.06
1112.49	-22.28
1112.78	-23.41
1113.07	-30.96
1113.36	-35.48
1113.65	-34.89
1113.94	-24.63
1114.23	-31.50
1114.52	-26.30
1114.81	-19.21
1115.10	-12.47
1115.39	-29.74
1115.68	-29.15
1115.97	-18.30
1116.26	-28.20
1116.55	-29.78
1116.83	-26.76
1117.12	-24.81
1117.41	-23.86
1117.70	-28.34
1117.99	-21.51
1118.28	-40.13
1118.57	-26.71
1118.86	-30.73
1119.15	-41.67
1119.44	-17.04
1119.73	-15.10
1120.02	-26.03
1120.31	-34.48
1120.60	-45.42
1120.88	-27.66
1121.17	-35.03
1121.46	-24.23
1121.75	-11.34
1122.04	-26.76
1122.33	-29.24
1122.62	-31.14
1122.91	-23.10
1123.20	-25.45
1123.48	-20.75
1123.77	-25.08
1124.06	-40.41
>>>>>End Processed Spectral Data<<<<<
