SpectraSuite Data File
++++++++++++++++++++++++++++++++++++
Date: Fri Aug 18 15:31:17 EST 2017
User: z3470068
Dark Spectrum Present: Yes
Reference Spectrum Present: No
Number of Sampled Component Spectra: 1
Spectrometers: USB2+F03475
Integration Time (usec): 1000 (USB2+F03475)
Spectra Averaged: 50 (USB2+F03475)
Boxcar Smoothing: 0 (USB2+F03475)
Correct for Electrical Dark: No (USB2+F03475)
Strobe/Lamp Enabled: No (USB2+F03475)
Correct for Detector Non-linearity: No (USB2+F03475)
Correct for Stray Light: No (USB2+F03475)
Number of Pixels in Processed Spectrum: 2048
>>>>>Begin Processed Spectral Data<<<<<
441.04	-17.99
441.42	-17.99
441.79	-17.99
442.17	-5.20
442.55	-11.34
442.93	-23.82
443.31	-31.19
443.68	-23.28
444.06	-8.59
444.44	-4.11
444.82	-18.44
445.19	-15.28
445.57	-14.64
445.95	-13.47
446.33	-17.94
446.70	-21.47
447.08	-13.60
447.46	-26.62
447.84	-11.75
448.21	-12.47
448.59	-12.56
448.97	-26.62
449.35	-24.27
449.72	-25.36
450.10	-22.91
450.48	-22.24
450.85	-2.53
451.23	-10.21
451.61	-15.82
451.98	-20.43
452.36	-10.44
452.74	-7.14
453.11	-15.59
453.49	-13.33
453.87	-15.01
454.24	-12.75
454.62	-21.92
455.00	-15.05
455.37	-11.12
455.75	-21.92
456.13	-21.69
456.50	-31.10
456.88	-26.39
457.26	-25.31
457.63	-16.00
458.01	-6.15
458.38	-15.05
458.76	-16.50
459.14	-14.33
459.51	-18.94
459.89	-13.47
460.26	0.36
460.64	-11.03
461.02	-15.55
461.39	-7.86
461.77	-24.59
462.14	2.17
462.52	-16.00
462.89	-13.60
463.27	-15.55
463.65	-17.76
464.02	-12.47
464.40	-20.75
464.77	-11.12
465.15	-28.47
465.52	-16.72
465.90	-19.12
466.27	-12.93
466.65	-32.45
467.02	-24.09
467.40	-8.81
467.77	-5.79
468.15	-23.95
468.52	-12.79
468.90	-27.84
469.27	-17.08
469.65	-11.34
470.02	-16.27
470.40	-20.88
470.77	-19.12
471.15	-29.06
471.52	-30.87
471.90	-10.26
472.27	-18.35
472.65	-19.39
473.02	-9.85
473.39	-23.41
473.77	-51.89
474.14	-15.32
474.52	-16.99
474.89	-9.04
475.27	-6.87
475.64	-12.52
476.01	-18.08
476.39	-23.64
476.76	-10.85
477.14	-14.51
477.51	-12.25
477.88	-14.01
478.26	-16.63
478.63	-21.02
479.01	-10.76
479.38	-9.04
479.75	-10.21
480.13	-25.54
480.50	-58.80
480.87	-27.93
481.25	-35.75
481.62	-13.65
481.99	-23.32
482.37	-20.25
482.74	-13.56
483.11	-25.31
483.49	-10.58
483.86	-10.71
484.23	-5.88
484.61	-3.84
484.98	-15.32
485.35	-16.00
485.73	-34.26
486.10	-19.84
486.47	-15.14
486.84	-16.54
487.22	-19.30
487.59	-18.26
487.96	-2.35
488.34	-22.82
488.71	-18.67
489.08	-19.75
489.45	-12.79
489.83	-17.94
490.20	-18.30
490.57	-23.55
490.94	-15.82
491.32	-21.02
491.69	-14.19
492.06	-7.68
492.43	-10.71
492.81	-8.59
493.18	-25.99
493.55	-20.79
493.92	-10.53
494.29	-21.15
494.67	-25.26
495.04	-16.32
495.41	-13.15
495.78	-3.43
496.15	-15.59
496.52	-10.94
496.90	-15.91
497.27	-6.46
497.64	-14.06
498.01	-26.58
498.38	-40.09
498.75	-11.84
499.13	-11.03
499.50	-18.08
499.87	-34.21
500.24	-26.58
500.61	-19.34
500.98	-15.59
501.35	-0.45
501.73	-11.89
502.10	-2.80
502.47	-28.93
502.84	-10.71
503.21	-4.20
503.58	-11.53
503.95	-20.02
504.32	-24.13
504.69	-17.67
505.06	-2.08
505.43	-19.89
505.81	-6.60
506.18	-25.58
506.55	-19.80
506.92	-13.24
507.29	-23.86
507.66	-11.62
508.03	-16.50
508.40	-13.38
508.77	-27.48
509.14	-31.73
509.51	-8.90
509.88	-20.11
510.25	-16.54
510.62	-11.84
510.99	-19.75
511.36	-15.32
511.73	-23.01
512.10	-16.14
512.47	-20.70
512.84	-11.62
513.21	-8.41
513.58	-17.08
513.95	-15.28
514.32	-14.96
514.69	-20.65
515.06	-19.75
515.43	-25.22
515.80	-15.82
516.17	-12.34
516.54	-5.02
516.91	-32.63
517.28	-19.66
517.64	-22.01
518.01	-25.08
518.38	-10.49
518.75	-6.33
519.12	-14.15
519.49	-13.74
519.86	-19.48
520.23	-30.51
520.60	-14.51
520.97	-15.14
521.34	-15.23
521.70	-17.13
522.07	-11.80
522.44	-33.13
522.81	-18.67
523.18	-19.21
523.55	-22.46
523.92	-9.94
524.29	-4.43
524.65	-20.38
525.02	-31.28
525.39	-18.76
525.76	-15.46
526.13	-14.96
526.50	-27.93
526.86	-15.28
527.23	-4.43
527.60	-9.31
527.97	-7.19
528.34	-24.41
528.70	-22.82
529.07	-17.13
529.44	-3.89
529.81	-14.19
530.18	-32.27
530.54	-14.19
530.91	-9.72
531.28	-3.93
531.65	-22.96
532.02	-18.67
532.38	-16.95
532.75	-22.69
533.12	-17.08
533.49	-37.51
533.85	-6.46
534.22	-4.93
534.59	-16.81
534.96	-15.28
535.32	-6.37
535.69	-11.71
536.06	-7.91
536.42	-17.94
536.79	-27.43
537.16	-12.02
537.53	-14.96
537.89	-15.86
538.26	-15.86
538.63	-14.24
538.99	-17.22
539.36	-19.66
539.73	-24.90
540.09	-10.94
540.46	-21.47
540.83	-22.01
541.19	-8.90
541.56	-10.17
541.93	-25.72
542.29	-28.16
542.66	-20.43
543.03	-13.92
543.39	-12.61
543.76	-5.74
544.12	-13.83
544.49	-20.75
544.86	-9.76
545.22	-0.77
545.59	-15.32
545.95	-16.77
546.32	-19.62
546.69	-22.33
547.05	-12.29
547.42	-6.19
547.78	-10.21
548.15	-15.19
548.52	-19.12
548.88	-7.82
549.25	-27.84
549.61	-3.98
549.98	-14.87
550.34	-19.07
550.71	-5.97
551.07	-6.78
551.44	1.67
551.81	-1.31
552.17	3.98
552.54	-14.42
552.90	-10.62
553.27	-20.65
553.63	-11.62
554.00	-9.76
554.36	-15.95
554.73	-23.01
555.09	-29.38
555.46	-27.89
555.82	0.59
556.19	-23.23
556.55	-18.35
556.92	-26.62
557.28	-17.04
557.64	-21.15
558.01	-10.03
558.37	-27.03
558.74	-12.47
559.10	-13.33
559.47	-14.01
559.83	-16.36
560.20	-16.32
560.56	-27.39
560.92	-23.64
561.29	-19.39
561.65	-16.32
562.02	-6.69
562.38	-17.90
562.75	-17.22
563.11	-10.71
563.47	-14.28
563.84	-8.86
564.20	-18.67
564.57	-20.84
564.93	-10.58
565.29	-14.15
565.66	-7.86
566.02	-21.74
566.38	-11.98
566.75	-26.85
567.11	-24.50
567.47	-11.66
567.84	-12.88
568.20	-15.46
568.56	-14.87
568.93	-20.88
569.29	-10.71
569.65	-20.75
570.02	-14.78
570.38	-10.49
570.74	-1.81
571.11	-10.71
571.47	-10.30
571.83	-9.63
572.20	-15.95
572.56	-17.63
572.92	-13.97
573.28	-22.64
573.65	-12.61
574.01	-19.30
574.37	-7.10
574.74	-12.97
575.10	-17.31
575.46	-22.06
575.82	-17.76
576.19	-13.47
576.55	-19.98
576.91	-16.36
577.27	-34.80
577.63	-16.68
578.00	-17.72
578.36	-6.87
578.72	-16.45
579.08	-17.85
579.45	-20.02
579.81	-23.86
580.17	-20.47
580.53	-17.67
580.89	-6.06
581.26	-10.12
581.62	-23.55
581.98	-25.22
582.34	-20.88
582.70	-2.89
583.06	-19.39
583.43	-22.46
583.79	-16.09
584.15	-15.23
584.51	-5.29
584.87	-14.42
585.23	-19.16
585.59	-21.83
585.96	-4.97
586.32	-13.38
586.68	-1.36
587.04	-13.11
587.40	-2.53
587.76	-14.19
588.12	-18.21
588.48	-31.41
588.84	-20.84
589.21	-9.76
589.57	-21.24
589.93	-24.36
590.29	-11.07
590.65	-19.75
591.01	-16.77
591.37	-22.10
591.73	-10.12
592.09	-9.76
592.45	-6.24
592.81	-9.04
593.17	-14.55
593.53	-8.86
593.89	-5.15
594.25	-7.77
594.61	-23.46
594.97	-21.74
595.33	-14.10
595.69	-17.85
596.05	-24.63
596.41	-19.71
596.77	-27.71
597.13	-18.85
597.49	-25.63
597.85	-11.80
598.21	-18.98
598.57	-8.81
598.93	-9.31
599.29	-16.14
599.65	-5.92
600.01	-5.69
600.37	-19.71
600.73	-18.53
601.09	-11.25
601.45	-15.10
601.81	-6.78
602.17	-28.43
602.53	-13.88
602.89	-20.34
603.25	-13.65
603.61	-12.43
603.97	-25.22
604.32	-20.20
604.68	-13.97
605.04	-25.49
605.40	-15.05
605.76	-20.93
606.12	-25.04
606.48	-22.96
606.84	-21.33
607.20	-5.02
607.55	-15.77
607.91	-17.27
608.27	-22.51
608.63	-23.86
608.99	-11.84
609.35	-21.97
609.71	-17.31
610.06	-14.51
610.42	-19.75
610.78	-23.05
611.14	-18.85
611.50	-5.02
611.86	-7.28
612.21	-11.48
612.57	-17.49
612.93	-19.34
613.29	-6.28
613.65	-18.58
614.00	-13.06
614.36	6.06
614.72	-10.94
615.08	-20.70
615.44	-2.80
615.79	-18.53
616.15	-13.88
616.51	-12.88
616.87	-9.76
617.22	-15.37
617.58	-11.93
617.94	-17.67
618.30	-8.00
618.65	-11.66
619.01	-11.80
619.37	-10.58
619.73	-13.65
620.08	0.45
620.44	-9.40
620.80	-17.54
621.15	-5.51
621.51	-16.50
621.87	-18.85
622.22	-17.54
622.58	-3.53
622.94	-22.87
623.30	-17.63
623.65	-12.56
624.01	-18.76
624.37	-27.52
624.72	-16.45
625.08	-15.46
625.44	-13.56
625.79	-4.11
626.15	-19.25
626.50	-18.76
626.86	-15.01
627.22	-11.80
627.57	-11.39
627.93	-9.13
628.29	-24.27
628.64	-11.39
629.00	-12.47
629.35	-17.17
629.71	-3.16
630.07	-16.59
630.42	-20.47
630.78	-12.79
631.13	-12.02
631.49	-13.06
631.85	-15.19
632.20	-20.52
632.56	-13.42
632.91	-13.33
633.27	-21.24
633.62	-18.76
633.98	-29.20
634.34	-9.90
634.69	-10.35
635.05	-28.93
635.40	-24.95
635.76	-30.51
636.11	-1.99
636.47	-9.54
636.82	-13.47
637.18	-16.95
637.53	-16.63
637.89	-22.64
638.24	-10.35
638.60	-18.67
638.95	-19.25
639.31	-11.21
639.66	-27.80
640.02	-20.34
640.37	-9.54
640.73	-3.93
641.08	-16.00
641.44	-17.13
641.79	-10.26
642.14	-14.51
642.50	-16.09
642.85	-13.65
643.21	-19.43
643.56	-14.19
643.92	-17.45
644.27	-8.95
644.63	-24.45
644.98	-17.58
645.33	-19.48
645.69	-17.54
646.04	-20.52
646.40	-18.08
646.75	-20.56
647.10	-14.46
647.46	-13.65
647.81	-7.23
648.17	-10.62
648.52	-9.36
648.87	-25.67
649.23	-15.37
649.58	-4.97
649.93	-16.81
650.29	-3.84
650.64	-13.83
650.99	-10.85
651.35	-19.66
651.70	-14.15
652.05	-12.11
652.41	-12.61
652.76	-17.58
653.11	-14.78
653.47	-19.12
653.82	-13.78
654.17	-23.91
654.53	-23.55
654.88	-9.94
655.23	-24.50
655.58	-11.48
655.94	-13.69
656.29	-21.11
656.64	-13.15
657.00	-16.04
657.35	-15.14
657.70	-19.34
658.05	-24.99
658.41	1.36
658.76	-12.56
659.11	-9.94
659.46	-19.62
659.82	-12.16
660.17	-7.05
660.52	-21.83
660.87	-4.97
661.23	-7.68
661.58	-13.56
661.93	-13.47
662.28	-17.27
662.63	-6.15
662.99	-20.84
663.34	-12.43
663.69	-26.44
664.04	-31.91
664.39	-22.15
664.74	-12.97
665.10	-10.03
665.45	-18.30
665.80	-20.07
666.15	-14.64
666.50	-17.22
666.85	-22.06
667.21	1.90
667.56	-23.50
667.91	-13.60
668.26	-10.21
668.61	-18.12
668.96	-17.22
669.31	-17.04
669.66	-24.13
670.02	-20.75
670.37	-8.77
670.72	-4.11
671.07	-11.62
671.42	-17.99
671.77	-12.52
672.12	-22.46
672.47	-23.50
672.82	-11.34
673.17	-19.39
673.52	-16.99
673.88	-19.21
674.23	-8.90
674.58	-6.73
674.93	-22.42
675.28	-25.58
675.63	-13.65
675.98	-0.99
676.33	-20.38
676.68	-11.48
677.03	-8.45
677.38	-5.42
677.73	-9.54
678.08	-21.29
678.43	-9.90
678.78	-4.84
679.13	-13.06
679.48	-20.79
679.83	-7.37
680.18	-6.10
680.53	-4.70
680.88	-22.82
681.23	-9.08
681.58	-5.88
681.93	-22.82
682.28	-22.33
682.63	-22.28
682.98	-8.59
683.33	-14.64
683.68	-15.19
684.02	-6.06
684.37	-10.67
684.72	-15.68
685.07	-11.80
685.42	6.51
685.77	-9.67
686.12	-11.25
686.47	-21.69
686.82	-17.40
687.17	-9.40
687.52	-11.75
687.86	-22.51
688.21	-23.55
688.56	-31.41
688.91	-7.32
689.26	-14.96
689.61	-24.86
689.96	-32.77
690.31	-10.71
690.65	-30.19
691.00	-13.29
691.35	-25.04
691.70	-26.98
692.05	-11.62
692.40	-13.60
692.74	-13.02
693.09	-16.04
693.44	-21.24
693.79	-3.34
694.14	-9.90
694.49	-21.06
694.83	-33.58
695.18	-2.76
695.53	-15.91
695.88	-11.98
696.23	-24.27
696.57	-13.15
696.92	-18.49
697.27	-2.44
697.62	-15.77
697.96	-16.77
698.31	-16.72
698.66	-18.89
699.01	-12.75
699.35	-26.03
699.70	-9.81
700.05	-10.85
700.40	-24.04
700.74	-11.34
701.09	-13.51
701.44	-12.79
701.79	-1.99
702.13	-5.20
702.48	-5.92
702.83	-13.06
703.17	-13.51
703.52	-13.69
703.87	-10.12
704.21	-11.57
704.56	-22.46
704.91	-11.07
705.25	-10.94
705.60	-17.49
705.95	-16.59
706.29	-1.99
706.64	-17.72
706.99	1.22
707.33	-3.34
707.68	-13.78
708.03	-15.23
708.37	-20.47
708.72	-28.16
709.07	-0.41
709.41	-13.74
709.76	-23.19
710.10	-3.39
710.45	-17.72
710.80	-1.76
711.14	-17.94
711.49	-19.16
711.83	-14.69
712.18	-10.44
712.53	-11.89
712.87	-23.82
713.22	4.34
713.56	-9.40
713.91	-8.72
714.25	-14.33
714.60	-0.99
714.95	-28.56
715.29	-5.92
715.64	-17.81
715.98	-12.29
716.33	-22.96
716.67	-22.69
717.02	-9.36
717.36	-6.55
717.71	-13.24
718.05	-6.42
718.40	-15.95
718.74	-14.96
719.09	1.63
719.43	-7.82
719.78	-13.11
720.12	-17.72
720.47	-3.25
720.81	-4.61
721.16	-10.21
721.50	-13.92
721.85	-7.64
722.19	-24.04
722.54	-20.56
722.88	-8.72
723.22	-17.72
723.57	-20.97
723.91	-6.69
724.26	-5.51
724.60	-12.84
724.95	-28.02
725.29	-25.36
725.63	-18.58
725.98	2.85
726.32	-10.35
726.67	-1.40
727.01	-5.38
727.35	-17.17
727.70	-19.84
728.04	-13.97
728.39	-8.59
728.73	-9.17
729.07	-8.54
729.42	-10.89
729.76	-20.20
730.10	-21.97
730.45	-22.78
730.79	-12.38
731.13	-8.18
731.48	-7.64
731.82	-15.59
732.17	-16.68
732.51	-21.69
732.85	-32.18
733.19	-1.76
733.54	-13.78
733.88	-10.21
734.22	-12.11
734.57	-15.05
734.91	-8.77
735.25	6.82
735.60	-6.87
735.94	-12.56
736.28	-12.16
736.62	-14.96
736.97	-14.24
737.31	-23.01
737.65	-12.43
738.00	-23.10
738.34	-12.43
738.68	-15.64
739.02	-14.19
739.37	-15.01
739.71	-9.63
740.05	-18.17
740.39	-14.28
740.73	-11.48
741.08	-10.21
741.42	-11.80
741.76	-2.40
742.10	-17.17
742.44	-10.26
742.79	-19.12
743.13	-18.39
743.47	-10.53
743.81	-17.76
744.15	-8.81
744.50	-10.80
744.84	-10.21
745.18	-19.30
745.52	-7.05
745.86	-8.32
746.20	-16.04
746.55	-5.02
746.89	-4.38
747.23	-16.50
747.57	-18.62
747.91	-8.68
748.25	-14.73
748.59	-6.87
748.94	-8.00
749.28	-5.69
749.62	-11.43
749.96	-20.02
750.30	-13.29
750.64	-13.42
750.98	-25.72
751.32	-13.56
751.66	-22.33
752.00	-17.40
752.34	-3.30
752.69	-13.51
753.03	-12.34
753.37	-4.07
753.71	-15.46
754.05	-20.34
754.39	-11.89
754.73	-14.78
755.07	-1.13
755.41	-14.64
755.75	-23.05
756.09	-13.69
756.43	-19.16
756.77	-10.58
757.11	1.58
757.45	3.30
757.79	-14.73
758.13	-4.93
758.47	-18.39
758.81	-4.93
759.15	-21.11
759.49	-9.49
759.83	-12.56
760.17	-9.49
760.51	-5.65
760.85	-4.93
761.19	8.99
761.53	-6.15
761.87	0.95
762.21	-9.94
762.55	-6.06
762.89	-3.89
763.23	-0.36
763.57	-5.24
763.91	-4.47
764.24	-16.23
764.58	-17.76
764.92	-0.90
765.26	-8.45
765.60	-1.63
765.94	-2.31
766.28	-15.73
766.62	-14.51
766.96	0.68
767.30	7.46
767.63	-12.52
767.97	-21.15
768.31	-16.99
768.65	-6.96
768.99	-2.26
769.33	-2.58
769.67	-2.31
770.00	0.90
770.34	-1.67
770.68	-16.18
771.02	-10.89
771.36	-12.34
771.70	-17.76
772.03	-5.97
772.37	-12.88
772.71	-7.19
773.05	-13.56
773.39	-11.98
773.73	-13.56
774.06	-10.94
774.40	-14.33
774.74	-4.88
775.08	-17.90
775.41	-1.04
775.75	-6.10
776.09	2.12
776.43	1.54
776.77	-4.11
777.10	-3.62
777.44	7.73
777.78	2.62
778.12	-6.78
778.45	-9.63
778.79	-10.35
779.13	-9.17
779.46	9.17
779.80	3.03
780.14	-1.49
780.48	-1.18
780.81	-14.87
781.15	-3.12
781.49	8.54
781.82	12.56
782.16	2.12
782.50	-0.77
782.84	4.25
783.17	9.22
783.51	-9.45
783.85	1.63
784.18	8.09
784.52	8.54
784.86	7.59
785.19	1.67
785.53	1.67
785.86	8.04
786.20	1.18
786.54	3.62
786.87	6.87
787.21	12.75
787.55	18.12
787.88	25.72
788.22	11.53
788.55	9.63
788.89	19.39
789.23	30.69
789.56	30.24
789.90	34.62
790.23	46.06
790.57	57.58
790.91	61.33
791.24	69.83
791.58	64.36
791.91	56.41
792.25	48.41
792.58	54.06
792.92	55.77
793.26	46.15
793.59	56.22
793.93	74.53
794.26	94.91
794.60	110.23
794.93	113.04
795.27	134.50
795.60	143.86
795.94	144.09
796.27	107.70
796.61	115.75
796.94	110.42
797.28	99.03
797.61	110.69
797.95	103.23
798.28	123.43
798.62	136.18
798.95	161.71
799.29	177.35
799.62	251.16
799.96	288.72
800.29	328.35
800.63	376.22
800.96	409.25
801.29	469.68
801.63	515.65
801.96	635.28
802.30	892.90
802.63	1320.37
802.97	2212.33
803.30	5142.73
803.63	14898.73
803.97	32618.76
804.30	53695.76
804.64	56827.97
804.97	54683.08
805.30	54307.72
805.64	42204.54
805.97	24689.88
806.31	11271.07
806.64	4354.87
806.97	2039.00
807.31	1230.61
807.64	796.72
807.97	590.36
808.31	468.19
808.64	369.48
808.97	297.39
809.31	259.70
809.64	207.54
809.97	191.99
810.31	148.47
810.64	145.26
810.97	111.55
811.31	90.17
811.64	76.61
811.97	74.21
812.31	75.93
812.64	69.11
812.97	56.77
813.30	43.75
813.64	44.61
813.97	56.04
814.30	39.77
814.64	34.26
814.97	29.06
815.30	31.05
815.63	28.02
815.97	21.06
816.30	22.82
816.63	18.67
816.96	10.58
817.30	15.59
817.63	19.30
817.96	7.50
818.29	9.22
818.62	9.04
818.96	1.04
819.29	12.84
819.62	20.65
819.95	10.76
820.28	1.08
820.62	-5.38
820.95	11.80
821.28	12.16
821.61	-7.23
821.94	13.20
822.28	2.98
822.61	12.97
822.94	5.74
823.27	14.96
823.60	14.33
823.93	-4.38
824.26	1.49
824.60	-9.72
824.93	17.49
825.26	5.24
825.59	5.97
825.92	-3.71
826.25	-8.68
826.58	9.85
826.91	-19.57
827.25	9.36
827.58	7.32
827.91	-9.94
828.24	-11.16
828.57	-4.02
828.90	-2.21
829.23	-4.20
829.56	-2.40
829.89	13.24
830.22	-9.99
830.55	-10.30
830.88	6.78
831.21	-2.89
831.54	-10.85
831.87	4.88
832.21	-0.41
832.54	-6.96
832.87	-6.06
833.20	-6.24
833.53	2.98
833.86	-12.75
834.19	-16.45
834.52	-14.33
834.85	3.89
835.18	-22.01
835.51	2.53
835.84	-1.31
836.17	-28.38
836.50	-6.69
836.83	-11.03
837.16	-4.84
837.49	-1.90
837.81	10.03
838.14	-13.69
838.47	-13.11
838.80	-5.92
839.13	-15.55
839.46	-1.04
839.79	-6.73
840.12	-12.66
840.45	-3.07
840.78	-19.62
841.11	-17.72
841.44	-21.42
841.77	-5.69
842.10	-13.69
842.42	-26.98
842.75	-10.35
843.08	-15.86
843.41	-8.77
843.74	-20.88
844.07	-7.46
844.40	-10.53
844.73	-12.61
845.06	-20.61
845.38	-10.85
845.71	-14.10
846.04	-16.81
846.37	-13.33
846.70	-8.09
847.03	0.63
847.35	-3.12
847.68	-14.60
848.01	-3.48
848.34	-8.72
848.67	-9.04
849.00	-15.55
849.32	-15.95
849.65	-11.57
849.98	-15.77
850.31	-9.72
850.64	-12.52
850.96	-13.33
851.29	-12.11
851.62	-10.49
851.95	-12.75
852.27	-6.01
852.60	-2.89
852.93	-15.23
853.26	-12.66
853.58	-23.23
853.91	-23.32
854.24	-9.13
854.57	6.15
854.89	-12.93
855.22	-11.93
855.55	-3.53
855.88	-15.55
856.20	-12.43
856.53	-16.00
856.86	-7.95
857.18	-22.37
857.51	-22.19
857.84	-12.93
858.17	-16.32
858.49	-15.46
858.82	-8.81
859.15	-7.23
859.47	-9.85
859.80	-21.33
860.13	-20.34
860.45	-15.82
860.78	-20.34
861.11	-19.43
861.43	-11.80
861.76	-20.47
862.08	-4.97
862.41	-14.91
862.74	-16.18
863.06	-9.49
863.39	-6.19
863.72	-13.78
864.04	-8.18
864.37	-10.26
864.69	-22.37
865.02	-20.75
865.35	-18.35
865.67	-13.11
866.00	-23.19
866.32	-11.93
866.65	-17.67
866.97	-15.41
867.30	-14.51
867.63	-17.13
867.95	1.36
868.28	-11.07
868.60	-0.18
868.93	-14.60
869.25	-16.86
869.58	-16.81
869.90	-17.54
870.23	-7.68
870.55	-11.25
870.88	-10.58
871.20	-14.87
871.53	-23.91
871.85	-8.90
872.18	-12.97
872.50	-16.14
872.83	-4.16
873.15	-14.15
873.48	-8.86
873.80	-8.90
874.13	1.58
874.45	-9.27
874.78	-2.44
875.10	-15.05
875.43	-8.23
875.75	-6.01
876.08	-10.53
876.40	-14.51
876.73	-8.68
877.05	-15.73
877.37	-4.79
877.70	-17.49
878.02	-16.99
878.35	-16.45
878.67	-14.60
878.99	-16.23
879.32	-17.27
879.64	-2.49
879.97	-4.07
880.29	-13.47
880.61	-10.35
880.94	-17.72
881.26	-6.01
881.59	-9.27
881.91	-13.74
882.23	-13.15
882.56	-10.53
882.88	-19.98
883.20	-15.41
883.53	-15.59
883.85	-11.03
884.17	-18.98
884.50	-7.91
884.82	-11.80
885.14	-4.29
885.47	-18.85
885.79	-14.01
886.11	-15.86
886.44	-16.95
886.76	-19.48
887.08	1.58
887.41	-15.82
887.73	-17.81
888.05	-18.49
888.37	-22.10
888.70	-25.90
889.02	-14.01
889.34	0.72
889.66	-30.91
889.99	-14.24
890.31	-9.58
890.63	-8.86
890.95	-23.82
891.28	-4.20
891.60	-12.20
891.92	-14.42
892.24	-27.07
892.57	-16.09
892.89	-11.34
893.21	-20.61
893.53	-11.30
893.85	-26.44
894.18	-15.95
894.50	-6.78
894.82	-18.03
895.14	-19.71
895.46	-15.32
895.79	-0.77
896.11	-19.93
896.43	-10.49
896.75	-29.06
897.07	-3.62
897.39	-16.45
897.72	-8.14
898.04	-10.35
898.36	-14.24
898.68	-12.11
899.00	-13.56
899.32	-4.79
899.64	-22.64
899.97	-5.51
900.29	-5.83
900.61	-17.40
900.93	-17.81
901.25	-27.98
901.57	-13.24
901.89	-11.62
902.21	-14.60
902.53	-6.51
902.85	-8.59
903.18	-17.63
903.50	-3.75
903.82	-11.48
904.14	-24.13
904.46	-20.29
904.78	-38.51
905.10	-11.71
905.42	-15.01
905.74	-15.77
906.06	-18.94
906.38	-17.36
906.70	-26.89
907.02	-23.59
907.34	-12.97
907.66	-16.72
907.98	-18.49
908.30	2.49
908.62	-12.61
908.94	-25.04
909.26	-15.01
909.58	-12.88
909.90	-22.82
910.22	-17.94
910.54	-7.73
910.86	-25.99
911.18	-12.84
911.50	-38.51
911.82	-13.47
912.14	-7.55
912.46	-24.54
912.78	-14.06
913.10	-15.37
913.42	-17.72
913.74	-9.22
914.06	-10.71
914.37	-15.46
914.69	-11.80
915.01	-25.08
915.33	-19.75
915.65	-18.85
915.97	-7.32
916.29	-18.44
916.61	-29.47
916.93	-19.52
917.25	-19.39
917.56	-13.33
917.88	-24.54
918.20	-13.24
918.52	-7.32
918.84	-20.25
919.16	-4.93
919.48	-15.23
919.79	-6.51
920.11	-12.20
920.43	-14.73
920.75	-26.53
921.07	-17.63
921.39	-24.45
921.70	-3.21
922.02	-20.07
922.34	-16.95
922.66	-15.28
922.98	-9.67
923.30	-11.75
923.61	-12.25
923.93	-4.02
924.25	-10.12
924.57	-15.77
924.88	-10.49
925.20	2.89
925.52	-20.65
925.84	-16.99
926.16	-8.81
926.47	-19.71
926.79	-1.08
927.11	-25.04
927.43	-27.62
927.74	-13.88
928.06	0.41
928.38	-29.06
928.69	-27.98
929.01	-13.24
929.33	-12.34
929.65	-11.53
929.96	-13.65
930.28	-23.19
930.60	-11.03
930.91	-23.01
931.23	-17.22
931.55	-15.86
931.86	-21.33
932.18	-11.80
932.50	2.40
932.81	-13.74
933.13	-11.07
933.45	-4.29
933.76	-12.93
934.08	-18.94
934.40	-19.39
934.71	-19.80
935.03	-18.21
935.35	-11.53
935.66	-14.33
935.98	-10.89
936.29	-13.15
936.61	-17.49
936.93	-5.60
937.24	-12.38
937.56	-16.00
937.88	-6.92
938.19	-15.91
938.51	-13.20
938.82	-18.49
939.14	-12.25
939.45	-24.68
939.77	-13.38
940.09	-10.26
940.40	-11.12
940.72	-36.34
941.03	-16.81
941.35	-15.77
941.66	-17.67
941.98	-27.98
942.29	-9.08
942.61	-14.37
942.92	-7.77
943.24	-25.13
943.55	-11.30
943.87	-11.53
944.19	-17.63
944.50	-18.44
944.82	-13.42
945.13	-15.10
945.45	-23.59
945.76	-16.27
946.07	-13.51
946.39	-4.61
946.70	-0.23
947.02	-19.62
947.33	-3.75
947.65	-22.82
947.96	-9.22
948.28	-28.11
948.59	-14.37
948.91	-13.74
949.22	-23.10
949.53	-16.14
949.85	-15.95
950.16	-20.75
950.48	-21.74
950.79	-8.18
951.11	-7.28
951.42	-17.99
951.73	-14.42
952.05	-14.73
952.36	-5.79
952.68	-18.12
952.99	-25.54
953.30	-20.25
953.62	-8.23
953.93	-18.80
954.24	-25.58
954.56	-5.65
954.87	-8.04
955.19	-17.63
955.50	-21.33
955.81	-16.59
956.13	-22.82
956.44	-15.32
956.75	-12.16
957.07	-18.39
957.38	-7.19
957.69	-19.80
958.00	-18.30
958.32	-23.68
958.63	-1.90
958.94	-25.94
959.26	-14.15
959.57	-9.94
959.88	-14.10
960.20	-7.55
960.51	-15.86
960.82	-14.10
961.13	-1.94
961.45	-18.26
961.76	-8.32
962.07	-9.45
962.38	-18.76
962.70	-9.36
963.01	-13.24
963.32	-13.83
963.63	-15.10
963.95	-18.03
964.26	-10.08
964.57	-14.87
964.88	-17.36
965.19	-10.85
965.51	-16.45
965.82	-12.70
966.13	-6.24
966.44	-21.38
966.75	-5.51
967.07	-2.67
967.38	-12.11
967.69	-16.77
968.00	-13.97
968.31	-20.84
968.62	-20.43
968.94	-25.76
969.25	-22.28
969.56	-11.71
969.87	-27.39
970.18	-23.19
970.49	-24.13
970.80	-16.41
971.12	-17.99
971.43	-17.45
971.74	-27.98
972.05	-26.58
972.36	-5.69
972.67	-2.98
972.98	-4.70
973.29	-8.68
973.60	-16.36
973.92	-3.34
974.23	-15.10
974.54	-10.17
974.85	-10.71
975.16	-23.32
975.47	-21.29
975.78	-5.60
976.09	-4.70
976.40	-22.01
976.71	-9.63
977.02	-13.78
977.33	-18.98
977.64	-18.71
977.95	-22.01
978.26	-6.15
978.57	-20.79
978.88	-5.38
979.19	-17.67
979.50	-4.88
979.81	-9.99
980.12	-12.84
980.43	-14.33
980.74	-12.88
981.05	-19.03
981.36	-12.84
981.67	-24.59
981.98	-12.97
982.29	-14.55
982.60	-14.60
982.91	-18.53
983.22	-15.77
983.53	-10.03
983.84	-8.14
984.15	-10.58
984.46	-14.46
984.77	-10.71
985.08	-9.08
985.39	-2.31
985.70	-17.40
986.00	-21.15
986.31	-21.65
986.62	-0.09
986.93	-15.23
987.24	-13.24
987.55	-12.93
987.86	-11.34
988.17	-11.43
988.48	-15.82
988.79	-11.12
989.09	-15.82
989.40	-13.60
989.71	-26.39
990.02	-16.50
990.33	-16.68
990.64	-21.78
990.95	-20.61
991.25	-11.21
991.56	-7.28
991.87	-24.68
992.18	-21.60
992.49	-13.69
992.79	-10.94
993.10	-9.45
993.41	-12.07
993.72	-18.58
994.03	-10.89
994.33	-9.94
994.64	-9.67
994.95	-24.50
995.26	-7.41
995.57	-24.09
995.87	-15.59
996.18	-9.63
996.49	-19.25
996.80	-12.47
997.10	-8.41
997.41	-14.46
997.72	-27.39
998.03	-15.68
998.33	-13.78
998.64	-26.53
998.95	-17.45
999.26	-7.82
999.56	-12.93
999.87	-24.23
1000.18	-24.23
1000.48	-20.43
1000.79	-18.12
1001.10	-19.48
1001.41	-11.57
1001.71	-9.40
1002.02	-10.21
1002.33	-15.55
1002.63	-5.29
1002.94	-15.41
1003.25	-21.38
1003.55	-17.76
1003.86	-22.10
1004.17	-20.25
1004.47	-18.62
1004.78	-25.45
1005.08	-9.99
1005.39	-10.98
1005.70	-1.99
1006.00	-17.81
1006.31	-9.99
1006.62	3.43
1006.92	-6.78
1007.23	-8.00
1007.53	-18.89
1007.84	-18.30
1008.15	-22.87
1008.45	-15.86
1008.76	-8.50
1009.06	-7.37
1009.37	-12.93
1009.68	-27.57
1009.98	-19.48
1010.29	-26.89
1010.59	-19.66
1010.90	-14.33
1011.20	-23.82
1011.51	-12.84
1011.81	-14.28
1012.12	-15.19
1012.42	-18.94
1012.73	-20.29
1013.04	-16.04
1013.34	-3.57
1013.65	-21.56
1013.95	-12.16
1014.26	-24.23
1014.56	-8.14
1014.87	-2.35
1015.17	-24.45
1015.48	-3.75
1015.78	-24.68
1016.09	-15.01
1016.39	-15.01
1016.69	-10.85
1017.00	-13.47
1017.30	-21.78
1017.61	-10.17
1017.91	-13.24
1018.22	-8.59
1018.52	-12.88
1018.83	-10.03
1019.13	-15.50
1019.43	-18.71
1019.74	-19.48
1020.04	-11.34
1020.35	-6.96
1020.65	-10.58
1020.96	-21.97
1021.26	-22.06
1021.56	-11.07
1021.87	-12.47
1022.17	-9.85
1022.48	-24.36
1022.78	-24.09
1023.08	-12.07
1023.39	-18.76
1023.69	-16.14
1023.99	-26.30
1024.30	-7.64
1024.60	-13.88
1024.90	-17.67
1025.21	-14.91
1025.51	-7.23
1025.81	-25.31
1026.12	-13.74
1026.42	-8.59
1026.72	-2.94
1027.03	-25.54
1027.33	-2.26
1027.63	-9.94
1027.94	-22.51
1028.24	-25.26
1028.54	-5.06
1028.85	-21.38
1029.15	-14.10
1029.45	-9.94
1029.75	-4.79
1030.06	-10.58
1030.36	-9.31
1030.66	2.21
1030.96	-4.43
1031.27	-13.29
1031.57	-12.38
1031.87	-18.53
1032.17	-4.43
1032.48	-15.01
1032.78	-11.93
1033.08	-19.12
1033.38	-19.84
1033.69	-4.52
1033.99	-18.30
1034.29	-12.56
1034.59	-15.41
1034.89	-25.26
1035.20	-18.03
1035.50	-18.53
1035.80	-17.27
1036.10	-7.86
1036.40	-10.17
1036.71	-21.74
1037.01	-17.81
1037.31	-10.94
1037.61	-8.04
1037.91	-9.54
1038.21	0.45
1038.52	-13.65
1038.82	-4.16
1039.12	-3.66
1039.42	-15.50
1039.72	-17.99
1040.02	-16.68
1040.32	-20.93
1040.62	-12.79
1040.93	-10.08
1041.23	-8.04
1041.53	-9.85
1041.83	-16.81
1042.13	-4.66
1042.43	-7.77
1042.73	-9.13
1043.03	-10.17
1043.33	-19.62
1043.63	-0.90
1043.93	-15.14
1044.24	-26.39
1044.54	-16.77
1044.84	-20.25
1045.14	-7.10
1045.44	-11.75
1045.74	-19.75
1046.04	-13.56
1046.34	-19.62
1046.64	-16.32
1046.94	-13.65
1047.24	-6.19
1047.54	-18.08
1047.84	-21.15
1048.14	-6.69
1048.44	-20.34
1048.74	-22.37
1049.04	-3.53
1049.34	-7.19
1049.64	-12.66
1049.94	-16.68
1050.24	-13.69
1050.54	-22.69
1050.84	-7.64
1051.14	-10.35
1051.44	-24.27
1051.74	-14.55
1052.04	-21.92
1052.34	-20.20
1052.64	-24.59
1052.93	-8.14
1053.23	-4.25
1053.53	3.43
1053.83	-21.51
1054.13	-24.99
1054.43	-17.85
1054.73	-15.91
1055.03	-13.11
1055.33	-21.92
1055.63	-12.29
1055.93	-21.11
1056.22	-17.22
1056.52	-8.23
1056.82	-12.16
1057.12	-7.28
1057.42	-11.66
1057.72	-17.72
1058.02	-7.46
1058.31	-9.13
1058.61	-6.15
1058.91	-20.25
1059.21	-16.72
1059.51	-8.27
1059.81	-13.42
1060.11	0.68
1060.40	-21.83
1060.70	-17.72
1061.00	-14.46
1061.30	-25.58
1061.60	-22.55
1061.89	-11.12
1062.19	-22.24
1062.49	-16.23
1062.79	-20.25
1063.09	-28.47
1063.38	-14.60
1063.68	-20.52
1063.98	-15.01
1064.28	-18.30
1064.57	-3.30
1064.87	-21.88
1065.17	-0.63
1065.47	-13.69
1065.76	-12.07
1066.06	-23.32
1066.36	-12.38
1066.66	-16.45
1066.95	-19.39
1067.25	-16.81
1067.55	-6.37
1067.84	-3.93
1068.14	-17.36
1068.44	-18.80
1068.74	-9.31
1069.03	-38.87
1069.33	-27.93
1069.63	-20.61
1069.92	-13.83
1070.22	-18.76
1070.52	-21.15
1070.81	-18.30
1071.11	-18.35
1071.41	-14.69
1071.70	-27.39
1072.00	-8.54
1072.30	-19.57
1072.59	-20.25
1072.89	-12.25
1073.19	-15.82
1073.48	-7.23
1073.78	-12.38
1074.07	-10.76
1074.37	-34.80
1074.67	-26.26
1074.96	-21.60
1075.26	-14.10
1075.55	-20.70
1075.85	-6.92
1076.15	-15.68
1076.44	-22.46
1076.74	-17.22
1077.03	-19.43
1077.33	-26.03
1077.62	-20.34
1077.92	-20.11
1078.22	-16.23
1078.51	-13.65
1078.81	-16.81
1079.10	-10.21
1079.40	-15.14
1079.69	-15.73
1079.99	-16.72
1080.28	-1.13
1080.58	-11.07
1080.87	-4.70
1081.17	0.18
1081.46	-17.49
1081.76	-16.77
1082.05	-15.95
1082.35	-13.38
1082.64	-21.33
1082.94	-11.80
1083.23	-15.68
1083.53	-13.56
1083.82	-22.24
1084.12	-16.81
1084.41	-13.88
1084.71	-12.61
1085.00	-24.72
1085.30	-16.77
1085.59	-18.30
1085.88	-13.33
1086.18	-14.10
1086.47	-25.99
1086.77	-13.69
1087.06	-6.19
1087.36	-4.61
1087.65	-8.63
1087.94	-15.37
1088.24	-26.53
1088.53	-19.21
1088.83	-10.98
1089.12	-14.46
1089.41	-18.85
1089.71	-12.97
1090.00	-4.16
1090.29	-13.06
1090.59	-6.96
1090.88	-6.87
1091.18	-21.02
1091.47	-30.15
1091.76	-5.83
1092.06	-20.79
1092.35	-22.78
1092.64	-15.68
1092.94	-30.15
1093.23	-25.13
1093.52	-23.64
1093.82	-7.77
1094.11	-6.10
1094.40	-23.23
1094.69	-13.02
1094.99	-6.78
1095.28	-2.98
1095.57	-5.92
1095.87	-2.44
1096.16	-11.71
1096.45	-6.60
1096.74	-22.28
1097.04	-14.01
1097.33	-8.00
1097.62	-24.72
1097.92	-10.94
1098.21	-16.59
1098.50	-17.31
1098.79	-25.58
1099.08	-13.42
1099.38	-16.27
1099.67	-23.14
1099.96	-19.84
1100.25	-21.65
1100.55	-18.26
1100.84	-6.42
1101.13	-36.70
1101.42	-8.90
1101.71	-13.56
1102.01	-24.72
1102.30	-22.51
1102.59	-2.44
1102.88	-12.79
1103.17	-16.18
1103.47	-16.32
1103.76	-28.65
1104.05	-12.66
1104.34	-10.44
1104.63	-11.16
1104.92	-9.90
1105.21	-11.93
1105.51	-30.33
1105.80	-18.12
1106.09	-13.33
1106.38	-10.71
1106.67	-24.54
1106.96	-19.93
1107.25	-13.15
1107.54	-15.73
1107.84	-10.85
1108.13	-24.41
1108.42	-9.40
1108.71	-20.34
1109.00	-12.38
1109.29	-14.46
1109.58	-22.91
1109.87	-21.60
1110.16	-11.25
1110.45	-7.50
1110.74	-9.27
1111.03	2.76
1111.32	-2.94
1111.61	-18.67
1111.90	-1.63
1112.20	-17.63
1112.49	-14.10
1112.78	-15.77
1113.07	-16.59
1113.36	-21.51
1113.65	-13.92
1113.94	-5.60
1114.23	-21.06
1114.52	-12.43
1114.81	-19.25
1115.10	-12.43
1115.39	-19.43
1115.68	-9.54
1115.97	-12.97
1116.26	-9.31
1116.55	-15.68
1116.83	-19.48
1117.12	-9.45
1117.41	-19.21
1117.70	-22.96
1117.99	-15.86
1118.28	-17.22
1118.57	-9.72
1118.86	-15.28
1119.15	-29.29
1119.44	-8.18
1119.73	-14.10
1120.02	-15.01
1120.31	-18.98
1120.60	-28.70
1120.88	-24.41
1121.17	-15.59
1121.46	-18.26
1121.75	-14.19
1122.04	-22.69
1122.33	-17.36
1122.62	-18.85
1122.91	-10.44
1123.20	-10.76
1123.48	-8.23
1123.77	-6.10
1124.06	-21.24
>>>>>End Processed Spectral Data<<<<<
